loggingTime(txt),accelerometerTimestamp_sinceReboot(s),accelerometerAccelerationX(G),accelerometerAccelerationY(G),accelerometerAccelerationZ(G),motionTimestamp_sinceReboot(s),motionYaw(rad),motionRoll(rad),motionPitch(rad),motionRotationRateX(rad/s),motionRotationRateY(rad/s),motionRotationRateZ(rad/s),motionUserAccelerationX(G),motionUserAccelerationY(G),motionUserAccelerationZ(G),motionAttitudeReferenceFrame(txt),motionQuaternionX(R),motionQuaternionY(R),motionQuaternionZ(R),motionQuaternionW(R),motionGravityX(G),motionGravityY(G),motionGravityZ(G),motionMagneticFieldX(µT),motionMagneticFieldY(µT),motionMagneticFieldZ(µT),motionHeading(°),motionMagneticFieldCalibrationAccuracy(Z)
2022-06-09T02:51:43.372+01:00,15090.79689779167,0.3216094970703125,-0.136962890625,-0.937591552734375,15090.78694979167,0.255964187017907,0.3298989856094424,0.07629408398223665,0.3315253853797913,0.09948787093162537,0.01383708696812391,-0.01953834295272827,-0.05911016464233398,0.006204426288604736,XArbitraryZVertical,0.01637004453121656,0.1675426553657826,0.1320200984481532,0.9768481226919985,0.3230051100254059,-0.07622008770704269,-0.9433229565620422,0,0,0,-1,-1
2022-06-09T02:51:43.376+01:00,15090.81182079167,0.3253173828125,-0.156341552734375,-0.92230224609375,15090.80684679167,0.2553771564066222,0.3320002151858562,0.08180820588732625,0.2007163017988205,0.09369812905788422,0.115345261991024,0.004043340682983398,-0.06192930787801743,0.006744682788848877,XArbitraryZVertical,0.01897801700533984,0.1688922349525228,0.1321883919550795,0.9765456301725366,0.3248445987701416,-0.08171698451042175,-0.9422305226325989,0,0,0,-1,-1
2022-06-09T02:51:43.386+01:00,15090.82674479167,0.3255462646484375,-0.13958740234375,-0.9168548583984375,15090.82674479167,0.2573701703412662,0.3340296864683931,0.08511719257433631,0.06962188333272934,0.1202172935009003,0.1524878740310669,-0.002385973930358887,-0.06436914950609207,0.02150887250900269,XArbitraryZVertical,0.02029261812999796,0.1700995790422944,0.1334442721252572,0.9761387714521059,0.3266657292842865,-0.0850144550204277,-0.9413086771965027,0,0,0,-1,-1
2022-06-09T02:51:43.388+01:00,15090.84163679167,0.3262481689453125,-0.109161376953125,-0.9197540283203125,15090.82674479167,0.2573701703412662,0.3340296864683931,0.08511719257433631,0.06962188333272934,0.1202172935009003,0.1524878740310669,-0.002385973930358887,-0.06436914950609207,0.02150887250900269,XArbitraryZVertical,0.02029261812999796,0.1700995790422944,0.1334442721252572,0.9761387714521059,0.3266657292842865,-0.0850144550204277,-0.9413086771965027,0,0,0,-1,-1
2022-06-09T02:51:43.406+01:00,15090.85655979167,0.329193115234375,-0.100616455078125,-0.9467620849609375,15090.84661179167,0.2597520376032489,0.3363603330300325,0.0878744899715674,0.1125536561012268,0.1295900642871857,0.1715656071901321,-0.002531915903091431,-0.02139998972415924,0.02056592702865601,XArbitraryZVertical,0.02128093366451343,0.1714268209890353,0.1348510207541006,0.9756920750872143,0.3287800848484039,-0.08776143938302994,-0.9403199553489685,0,0,0,-1,-1
2022-06-09T02:51:43.410+01:00,15090.87148279167,0.3397216796875,-0.094146728515625,-0.9652862548828125,15090.86650879167,0.2623225770266651,0.3386808550678616,0.09095772242599461,0.09619495272636414,0.1148228570818901,0.1562753766775131,0.002427935600280762,-0.009448453783988953,-0.01003074645996094,XArbitraryZVertical,0.0224091814242637,0.172772797284837,0.1363777214803921,0.9752170866392731,0.330869734287262,-0.09083235263824463,-0.9392947554588318,0,0,0,-1,-1
2022-06-09T02:51:43.419+01:00,15090.88640579167,0.3498077392578125,-0.073272705078125,-0.9589385986328125,15090.88640579167,0.2644004713024329,0.3405575067274063,0.09329620401643669,0.07874995470046997,0.09082375466823578,0.1022300273180008,0.01036596298217773,0.01277756690979004,-0.02481794357299805,XArbitraryZVertical,0.02324300903919802,0.1738535242296831,0.137600838396879,0.9748337000621599,0.3325600326061249,-0.09316091984510422,-0.938469409942627,0,0,0,-1,-1
2022-06-09T02:51:43.422+01:00,15090.90129879167,0.3632659912109375,-0.046844482421875,-0.9641571044921875,15090.88640579167,0.2644004713024329,0.3405575067274063,0.09329620401643669,0.07874995470046997,0.09082375466823578,0.1022300273180008,0.01036596298217773,0.01277756690979004,-0.02481794357299805,XArbitraryZVertical,0.02324300903919802,0.1738535242296831,0.137600838396879,0.9748337000621599,0.3325600326061249,-0.09316091984510422,-0.938469409942627,0,0,0,-1,-1
2022-06-09T02:51:43.425+01:00,15090.91622179167,0.366790771484375,-0.0583343505859375,-0.9603118896484375,15090.90627279167,0.2647026369114835,0.3420879490846708,0.09578603573185676,0.1374137997627258,0.06612338125705719,0.02095137909054756,0.02934890985488892,0.04879509657621384,-0.02641916275024414,XArbitraryZVertical,0.02432731063619054,0.174754720289027,0.1379680104881359,0.9745941343112052,0.3339170813560486,-0.09563963115215302,-0.9377379417419434,0,0,0,-1,-1
2022-06-09T02:51:43.428+01:00,15090.93114479167,0.363067626953125,-0.0787200927734375,-0.961212158203125,15090.92617079167,0.2638660884192015,0.3432263968803779,0.09879636974627082,0.1038540452718735,0.04611842334270477,-0.01631098240613937,0.03222516179084778,0.03694438934326172,-0.02327585220336914,XArbitraryZVertical,0.02579217230555876,0.1754817592675618,0.1378192254645668,0.974446948828843,0.3348860144615173,-0.0986357256770134,-0.9370818138122559,0,0,0,-1,-1
2022-06-09T02:51:43.434+01:00,15090.94606779167,0.3602142333984375,-0.0808868408203125,-0.965179443359375,15090.92617079167,0.2638660884192015,0.3432263968803779,0.09879636974627082,0.1038540452718735,0.04611842334270477,-0.01631098240613937,0.03222516179084778,0.03694438934326172,-0.02327585220336914,XArbitraryZVertical,0.02579217230555876,0.1754817592675618,0.1378192254645668,0.974446948828843,0.3348860144615173,-0.0986357256770134,-0.9370818138122559,0,0,0,-1,-1
2022-06-09T02:51:43.447+01:00,15090.96099079167,0.3469696044921875,-0.089111328125,-0.96038818359375,15090.94606779167,0.262987075170736,0.3439421575020012,0.09947820637586964,-0.008108111098408699,0.03195653110742569,-0.05828336998820305,0.02284926176071167,0.01418538391590118,-0.02539509534835815,XArbitraryZVertical,0.02615308261325273,0.1758602831954045,0.13745577706344,0.9744203626294894,0.3355338871479034,-0.09931421279907227,-0.9367783665657043,0,0,0,-1,-1
2022-06-09T02:51:43.461+01:00,15090.97588379167,0.31756591796875,-0.123443603515625,-0.966156005859375,15090.96596579167,0.2621708232294461,0.344506520702333,0.09840428900316306,-0.01042124256491661,0.03130435198545456,-0.001886254525743425,0.01087123155593872,0.009134173393249512,-0.02369946241378784,XArbitraryZVertical,0.02566175123543106,0.1760600095765204,0.1369777528325629,0.9744647144276196,0.3360983431339264,-0.09824555367231369,-0.9366887211799622,0,0,0,-1,-1
2022-06-09T02:51:43.476+01:00,15090.99080679167,0.347259521484375,-0.0946197509765625,-0.96905517578125,15090.98583279167,0.26342113473074,0.34560045061526,0.09600905800431615,-0.1160173788666725,0.02693836577236652,0.02267723903059959,-0.01405099034309387,-0.02248559147119522,-0.02989143133163452,XArbitraryZVertical,0.02430692787984136,0.1764641069756489,0.1374045094276588,0.9743662456844001,0.3372015655040741,-0.09586162865161896,-0.9365391731262207,0,0,0,-1,-1
2022-06-09T02:51:43.490+01:00,15091.00572979167,0.366546630859375,-0.0907135009765625,-0.9616851806640625,15090.98583279167,0.26342113473074,0.34560045061526,0.09600905800431615,-0.1160173788666725,0.02693836577236652,0.02267723903059959,-0.01405099034309387,-0.02248559147119522,-0.02989143133163452,XArbitraryZVertical,0.02430692787984136,0.1764641069756489,0.1374045094276588,0.9743662456844001,0.3372015655040741,-0.09586162865161896,-0.9365391731262207,0,0,0,-1,-1
2022-06-09T02:51:43.505+01:00,15091.02065279167,0.3535614013671875,-0.095611572265625,-0.9461669921875,15091.00572979167,0.2633565730953041,0.3464375002218725,0.09295322329787434,-0.06654303520917892,0.01813333295285702,-0.07801026105880737,0.02464860677719116,0.001159831881523132,-0.0267290472984314,XArbitraryZVertical,0.02276313618106592,0.176686049645448,0.1371317850545091,0.9744016967037851,0.3380832672119141,-0.09281942248344421,-0.9365277886390686,0,0,0,-1,-1
2022-06-09T02:51:43.521+01:00,15091.03557579167,0.3450927734375,-0.0963134765625,-0.95245361328125,15091.02562779167,0.2616678258866602,0.3471376045119657,0.09201017387687777,0.05147059634327888,0.01766148023307323,-0.09990566223859787,0.01479288935661316,-0.003731220960617065,-0.009794235229492188,XArbitraryZVertical,0.02240413060150049,0.1769510953275887,0.136239142931645,0.9744871172612832,0.338768482208252,-0.09188040345907211,-0.9363727569580078,0,0,0,-1,-1
2022-06-09T02:51:43.535+01:00,15091.05046879167,0.3533477783203125,-0.1068878173828125,-0.951141357421875,15091.04549479167,0.2585866655839638,0.3477473927482975,0.09149175784514582,0.01119523495435715,0.005465919617563486,-0.1924470365047455,0.007690280675888062,-0.005346089601516724,-0.01947784423828125,XArbitraryZVertical,0.02238246230408046,0.1771826954391141,0.1347016996768453,0.9746592643366837,0.3393555879592896,-0.09136416763067245,-0.9362106323242188,0,0,0,-1,-1
2022-06-09T02:51:43.551+01:00,15091.06539179167,0.3536376953125,-0.1029205322265625,-0.9486846923828125,15091.04549479167,0.2585866655839638,0.3477473927482975,0.09149175784514582,0.01119523495435715,0.005465919617563486,-0.1924470365047455,0.007690280675888062,-0.005346089601516724,-0.01947784423828125,XArbitraryZVertical,0.02238246230408046,0.1771826954391141,0.1347016996768453,0.9746592643366837,0.3393555879592896,-0.09136416763067245,-0.9362106323242188,0,0,0,-1,-1
2022-06-09T02:51:43.566+01:00,15091.08031479167,0.34405517578125,-0.11639404296875,-0.94805908203125,15091.06539179167,0.2549579156120191,0.3475232923328578,0.09096865083122484,0.03282593935728073,-0.008055955171585083,-0.1775790154933929,0.01629143953323364,-0.01569367945194244,-0.01284152269363403,XArbitraryZVertical,0.02246327627322941,0.177001875612417,0.1328872187414788,0.974939338031934,0.3391620218753815,-0.09084323793649673,-0.9363314509391785,0,0,0,-1,-1
2022-06-09T02:51:43.681+01:00,15091.09523779167,0.3406982421875,-0.1268310546875,-0.9527435302734375,15091.08528979167,0.2518972067947791,0.3475578932689996,0.09105542865446553,0.07499472051858902,-0.0200202651321888,-0.09836820513010025,0.00486341118812561,-0.02546443790197372,-0.01174670457839966,XArbitraryZVertical,0.02277424782160783,0.1769891885167126,0.1314026470410655,0.9751356138522748,0.339191734790802,-0.09092965722084045,-0.9363123178482056,0,0,0,-1,-1
2022-06-09T02:51:43.685+01:00,15091.11013079167,0.3569793701171875,-0.1246337890625,-0.9385528564453125,15091.10518679167,0.2502999720219966,0.3478067752650909,0.09116774759790731,-0.01144218910485506,-0.003863607300445437,-0.0527808777987957,0.001612663269042969,-0.0392686054110527,-0.013916015625,XArbitraryZVertical,0.02295420999137119,0.1770987620773984,0.1306360133549359,0.9752144941083758,0.339421272277832,-0.09104151278734207,-0.93621826171875,0,0,0,-1,-1
2022-06-09T02:51:43.688+01:00,15091.12505379167,0.3764801025390625,-0.08807373046875,-0.9324188232421875,15091.10518679167,0.2502999720219966,0.3478067752650909,0.09116774759790731,-0.01144218910485506,-0.003863607300445437,-0.0527808777987957,0.001612663269042969,-0.0392686054110527,-0.013916015625,XArbitraryZVertical,0.02295420999137119,0.1770987620773984,0.1306360133549359,0.9752144941083758,0.339421272277832,-0.09104151278734207,-0.93621826171875,0,0,0,-1,-1
2022-06-09T02:51:43.691+01:00,15091.13997679167,0.3627471923828125,-0.1102752685546875,-0.9398956298828125,15091.12505379167,0.2489528314812328,0.3478081672042891,0.09130364475734998,0.07543171942234039,-0.0005384727846831083,-0.06324516236782074,0.03677180409431458,-0.004404261708259583,0.004611313343048096,XArbitraryZVertical,0.02313980642148145,0.1770917056254429,0.129990397752408,0.9752976686027836,0.339418351650238,-0.091176837682724,-0.9362061619758606,0,0,0,-1,-1
2022-06-09T02:51:43.693+01:00,15091.15489979167,0.3440093994140625,-0.119232177734375,-0.959625244140625,15091.14495079167,0.2474944371501907,0.3485740859682259,0.09283308912967958,0.02410062402486801,0.02944197319447994,-0.03071228973567486,0.02265989780426025,-0.01757551729679108,-0.004081845283508301,XArbitraryZVertical,0.02396676384617364,0.1775351148077219,0.1294152569059091,0.975273568422643,0.3400872945785522,-0.0926998108625412,-0.9358137249946594,0,0,0,-1,-1
2022-06-09T02:51:43.696+01:00,15091.16982279167,0.348388671875,-0.0905609130859375,-0.9486846923828125,15091.16484879167,0.2474258994654147,0.3494867113193508,0.09212852779854887,-0.1084170266985893,0.04567897319793701,-0.02359221503138542,-0.0001431703567504883,-0.01946724951267242,-0.02535814046859741,XArbitraryZVertical,0.02356955961722545,0.1779393630924368,0.1293340345580814,0.9752202915123216,0.3409634530544281,-0.09199825674295425,-0.9355641007423401,0,0,0,-1,-1
2022-06-09T02:51:43.701+01:00,15091.18471579167,0.3719940185546875,-0.06414794921875,-0.9419097900390625,15091.16484879167,0.2474258994654147,0.3494867113193508,0.09212852779854887,-0.1084170266985893,0.04567897319793701,-0.02359221503138542,-0.0001431703567504883,-0.01946724951267242,-0.02535814046859741,XArbitraryZVertical,0.02356955961722545,0.1779393630924368,0.1293340345580814,0.9752202915123216,0.3409634530544281,-0.09199825674295425,-0.9355641007423401,0,0,0,-1,-1
2022-06-09T02:51:43.706+01:00,15091.19963879167,0.366851806640625,-0.0797119140625,-0.9322052001953125,15091.18471579167,0.247322808847512,0.3500485076427621,0.09263574296012672,0.05468201264739037,0.03864014893770218,0.002210505306720734,0.02749979496002197,0.02568501979112625,-0.009312629699707031,XArbitraryZVertical,0.02379022922233198,0.1782408195486536,0.1293327330634306,0.9751601016305272,0.3414729535579681,-0.09250330924987793,-0.935328483581543,0,0,0,-1,-1
2022-06-09T02:51:43.709+01:00,15091.21456179167,0.354248046875,-0.0899810791015625,-0.9442596435546875,15091.20461279167,0.2468265544220152,0.3519637208830724,0.09598097342104508,0.1840450763702393,0.04485803470015526,0.0379401408135891,0.02369672060012817,0.01612170040607452,0.002171874046325684,XArbitraryZVertical,0.02534496560681463,0.1793574711875503,0.1293942541131664,0.9749080212307535,0.3431550860404968,-0.0958336740732193,-0.9343770742416382,0,0,0,-1,-1
2022-06-09T02:51:43.715+01:00,15091.22948479167,0.355560302734375,-0.088897705078125,-0.9402618408203125,15091.22451079167,0.2461236669163799,0.3538723945398283,0.09936853633195386,0.1538150161504745,0.03498871624469757,0.01416149735450745,0.00806659460067749,0.007194533944129944,-0.009719967842102051,XArbitraryZVertical,0.02693936848908575,0.180468892970975,0.1293613470252591,0.9746644514711134,0.3448233902454376,-0.09920508414506912,-0.9334105253219604,0,0,0,-1,-1
2022-06-09T02:51:43.730+01:00,15091.24440779167,0.358795166015625,-0.0868072509765625,-0.949920654296875,15091.22451079167,0.2461236669163799,0.3538723945398283,0.09936853633195386,0.1538150161504745,0.03498871624469757,0.01416149735450745,0.00806659460067749,0.007194533944129944,-0.009719967842102051,XArbitraryZVertical,0.02693936848908575,0.180468892970975,0.1293613470252591,0.9746644514711134,0.3448233902454376,-0.09920508414506912,-0.9334105253219604,0,0,0,-1,-1
2022-06-09T02:51:43.744+01:00,15091.25930079167,0.361236572265625,-0.097320556640625,-0.9176788330078125,15091.24440779167,0.2453228014621615,0.3541903614790075,0.1029235113194353,0.1548742353916168,0.02835969440639019,0.003688806667923927,0.01263982057571411,0.01303541660308838,-0.01427096128463745,XArbitraryZVertical,0.02872738546853216,0.1808111386222488,0.1292749030376201,0.9745614867003245,0.3449956774711609,-0.1027418896555901,-0.9329641461372375,0,0,0,-1,-1
2022-06-09T02:51:43.759+01:00,15091.27422379167,0.3651885986328125,-0.1004638671875,-0.9193267822265625,15091.26427479167,0.244211566021527,0.3551514434190249,0.1041446607368459,0.1414396613836288,0.02082099579274654,0.011060512624681,0.01538825035095215,0.006635896861553192,0.01483500003814697,XArbitraryZVertical,0.02936235757346613,0.1813310386659664,0.1288503550020387,0.9745022092461768,0.3458482921123505,-0.1039565056562424,-0.9325138330459595,0,0,0,-1,-1
2022-06-09T02:51:43.774+01:00,15091.28914679167,0.360565185546875,-0.107757568359375,-0.91888427734375,15091.28417279167,0.2436550478028009,0.3567960241926617,0.1044665820541347,0.06564003229141235,0.01346916239708662,0.0174728911370039,0.0198788046836853,0.004941903054714203,0.009564340114593506,XArbitraryZVertical,0.02946427209021713,0.1821419123797779,0.1286306473077069,0.9743768555530836,0.3473697006702423,-0.1042766720056534,-0.931912362575531,0,0,0,-1,-1
2022-06-09T02:51:43.790+01:00,15091.30406979167,0.3477630615234375,-0.1098175048828125,-0.9142913818359375,15091.28417279167,0.2436550478028009,0.3567960241926617,0.1044665820541347,0.06564003229141235,0.01346916239708662,0.0174728911370039,0.0198788046836853,0.004941903054714203,0.009564340114593506,XArbitraryZVertical,0.02946427209021713,0.1821419123797779,0.1286306473077069,0.9743768555530836,0.3473697006702423,-0.1042766720056534,-0.931912362575531,0,0,0,-1,-1
2022-06-09T02:51:43.804+01:00,15091.31896279167,0.3436126708984375,-0.1049652099609375,-0.915496826171875,15091.30406979167,0.2441242667266953,0.3572950248815518,0.1040045336472644,-0.05262027308344841,0.0201125368475914,0.04648706316947937,0.00357365608215332,-0.007114313542842865,0.01724845170974731,XArbitraryZVertical,0.02916377840004624,0.1823663866048348,0.1288273239128818,0.9743179584475713,0.3478515148162842,-0.1038171350955963,-0.9317839741706848,0,0,0,-1,-1
2022-06-09T02:51:43.819+01:00,15091.33388579167,0.3538970947265625,-0.0656280517578125,-0.900848388671875,15091.32393679167,0.2458045462996341,0.3579663339093178,0.1018748450514198,-0.09105692058801651,0.04543203860521317,0.05932623893022537,-0.004940986633300781,-0.003266535699367523,0.01625841856002808,XArbitraryZVertical,0.02792728912124589,0.1825991997750575,0.129474283439141,0.9742248414961066,0.3485536277294159,-0.1016987189650536,-0.9317551851272583,0,0,0,-1,-1
2022-06-09T02:51:43.834+01:00,15091.34880879167,0.3582611083984375,-0.0709991455078125,-0.9159698486328125,15091.34383379167,0.2466230110847081,0.359379007428652,0.1009798028352136,0.03521490469574928,0.03718162328004837,0.03500282391905785,0.01106047630310059,0.04056651890277863,0.02798062562942505,XArbitraryZVertical,0.02732391123370946,0.1832485950386199,0.1298160692449185,0.9740745278353228,0.349901407957077,-0.1008082777261734,-0.9313467144966125,0,0,0,-1,-1
2022-06-09T02:51:43.849+01:00,15091.36373179167,0.3514251708984375,-0.0864410400390625,-0.9274139404296875,15091.34383379167,0.2466230110847081,0.359379007428652,0.1009798028352136,0.03521490469574928,0.03718162328004837,0.03500282391905785,0.01106047630310059,0.04056651890277863,0.02798062562942505,XArbitraryZVertical,0.02732391123370946,0.1832485950386199,0.1298160692449185,0.9740745278353228,0.349901407957077,-0.1008082777261734,-0.9313467144966125,0,0,0,-1,-1
2022-06-09T02:51:43.863+01:00,15091.37865479167,0.344818115234375,-0.0901947021484375,-0.933990478515625,15091.36373179167,0.2468074037534763,0.3611176082233957,0.1027330984526804,0.09964651614427567,0.04138332232832909,0.03585661575198174,0.002241581678390503,0.01357843726873398,0.00518566370010376,XArbitraryZVertical,0.02804979227620592,0.1841958750262055,0.1300801998776277,0.9738398723016034,0.3514571189880371,-0.1025524884462357,-0.9305701851844788,0,0,0,-1,-1
2022-06-09T02:51:43.878+01:00,15091.39354779167,0.354248046875,-0.086578369140625,-0.9451751708984375,15091.38362879167,0.2466433860675551,0.362484523133979,0.1049195311778649,0.07391161471605301,0.04243876039981842,0.02407949045300484,-0.007830381393432617,0.01453238725662231,-0.004113435745239258,XArbitraryZVertical,0.02904300623747727,0.1849810557112711,0.1302079108628908,0.9736448898455398,0.3526484668254852,-0.104727141559124,-0.9298770427703857,0,0,0,-1,-1
2022-06-09T02:51:43.894+01:00,15091.40847079167,0.3560638427734375,-0.09039306640625,-0.9555511474609375,15091.40349579167,0.246457843216604,0.3630975933876612,0.1063245480648753,0.02240554615855217,0.02718577347695827,-0.005082922521978617,0.0008227527141571045,0.02001892775297165,-0.02100884914398193,XArbitraryZVertical,0.02970587008976363,0.185354982419116,0.1302477070035167,0.9735484375081487,0.353165864944458,-0.1061243265867233,-0.9295221567153931,0,0,0,-1,-1
2022-06-09T02:51:43.909+01:00,15091.42339379167,0.355010986328125,-0.1087799072265625,-0.9504241943359375,15091.40349579167,0.246457843216604,0.3630975933876612,0.1063245480648753,0.02240554615855217,0.02718577347695827,-0.005082922521978617,0.0008227527141571045,0.02001892775297165,-0.02100884914398193,XArbitraryZVertical,0.02970587008976363,0.185354982419116,0.1302477070035167,0.9735484375081487,0.353165864944458,-0.1061243265867233,-0.9295221567153931,0,0,0,-1,-1
2022-06-09T02:51:43.923+01:00,15091.43831679167,0.3563995361328125,-0.1090545654296875,-0.9556121826171875,15091.42339379167,0.2461254463575835,0.3637030785249742,0.1036637907959538,-0.07980939000844955,-0.00582511443644762,-0.04435129091143608,0.001701921224594116,-0.0009071901440620422,-0.0223354697227478,XArbitraryZVertical,0.02839898503601151,0.1854969082682829,0.129864873054754,0.9736115672029122,0.3538278043270111,-0.1034782230854034,-0.9295687675476074,0,0,0,-1,-1
2022-06-09T02:51:43.938+01:00,15091.45323979167,0.3548583984375,-0.115020751953125,-0.9413909912109375,15091.44329079167,0.2455359029089453,0.3637170011042678,0.1000149842955887,-0.1356987804174423,-0.02340324968099594,-0.09689372777938843,0.002426803112030029,-0.009206295013427734,-0.02570164203643799,XArbitraryZVertical,0.02667219974743438,0.1852925323023386,0.1292622101656151,0.9737794793617125,0.3539727032184601,-0.09984832257032394,-0.9299105405807495,0,0,0,-1,-1
2022-06-09T02:51:43.953+01:00,15091.46813279167,0.3505401611328125,-0.1229400634765625,-0.943115234375,15091.46315779167,0.2446662165645591,0.3628890819506142,0.09587976603565485,-0.1658806353807449,-0.03166434541344643,-0.1078668385744095,-0.0004715025424957275,-0.01973037421703339,-0.01355624198913574,XArbitraryZVertical,0.02478782380092374,0.1846480406385768,0.12846995625704,0.9740564534610949,0.3533462584018707,-0.0957329273223877,-0.9305813312530518,0,0,0,-1,-1
2022-06-09T02:51:43.969+01:00,15091.48305579167,0.3475494384765625,-0.123748779296875,-0.9474029541015625,15091.48305579167,0.2437912347820702,0.3619364174320556,0.09175564372068633,-0.1519148945808411,-0.04717986285686493,-0.1200398355722427,-0.004802823066711426,-0.03506682813167572,-0.01650553941726685,XArbitraryZVertical,0.02291635628822751,0.1839440439161159,0.1276755199025038,0.9743399976938567,0.3525963723659515,-0.09162694960832596,-0.9312788844108582,0,0,0,-1,-1
2022-06-09T02:51:43.983+01:00,15091.49797879167,0.3489837646484375,-0.1081390380859375,-0.949798583984375,15091.48305579167,0.2437912347820702,0.3619364174320556,0.09175564372068633,-0.1519148945808411,-0.04717986285686493,-0.1200398355722427,-0.004802823066711426,-0.03506682813167572,-0.01650553941726685,XArbitraryZVertical,0.02291635628822751,0.1839440439161159,0.1276755199025038,0.9743399976938567,0.3525963723659515,-0.09162694960832596,-0.9312788844108582,0,0,0,-1,-1
2022-06-09T02:51:43.998+01:00,15091.51290179167,0.346893310546875,-0.103851318359375,-0.94647216796875,15091.50295279167,0.2422868742507655,0.3608851783290071,0.08903950377386058,-0.07647150009870529,-0.05798140540719032,-0.1267942041158676,-0.002719998359680176,-0.01921719312667847,-0.01792019605636597,XArbitraryZVertical,0.02179522259114292,0.183264197033132,0.1266960775196131,0.9746215951534559,0.3517037630081177,-0.08892189711332321,-0.931878387928009,0,0,0,-1,-1
2022-06-09T02:51:44.013+01:00,15091.52779379167,0.34735107421875,-0.088165283203125,-0.9692535400390625,15091.52285079167,0.2406333916572654,0.3597416925771426,0.08678721343793463,-0.1860192567110062,-0.06792115420103073,-0.1424540877342224,-0.006820231676101685,-0.01622702181339264,-0.0162806510925293,XArbitraryZVertical,0.02091873354580968,0.1825647232511187,0.1256837288741313,0.9749031134097669,0.3507075309753418,-0.08667830377817154,-0.9324650764465332,0,0,0,-1,-1
2022-06-09T02:51:44.028+01:00,15091.54271679167,0.329315185546875,-0.110443115234375,-0.987274169921875,15091.54271679167,0.2411275789221439,0.3575790451308345,0.08008937770684239,-0.5069621205329895,-0.1508913189172745,0.0005964580923318863,-0.008599251508712769,-0.01466179639101028,-0.05255335569381714,XArbitraryZVertical,0.01773802245528478,0.1811442771530174,0.1253277791632067,0.975276856829476,0.3488855063915253,-0.08000378310680389,-0.9337442517280579,0,0,0,-1,-1
2022-06-09T02:51:44.042+01:00,15091.55764079167,0.3122100830078125,-0.0696563720703125,-0.9900970458984375,15091.54271679167,0.2411275789221439,0.3575790451308345,0.08008937770684239,-0.5069621205329895,-0.1508913189172745,0.0005964580923318863,-0.008599251508712769,-0.01466179639101028,-0.05255335569381714,XArbitraryZVertical,0.01773802245528478,0.1811442771530174,0.1253277791632067,0.975276856829476,0.3488855063915253,-0.08000378310680389,-0.9337442517280579,0,0,0,-1,-1
2022-06-09T02:51:44.058+01:00,15091.57256379167,0.372894287109375,-0.07110595703125,-0.985260009765625,15091.56261479167,0.2488469373888285,0.3532004090061611,0.0705260381503499,-0.7733707427978516,-0.2561970949172974,0.3444212675094604,-0.03283247351646423,0.000811159610748291,-0.05415904521942139,XArbitraryZVertical,0.01264979723129116,0.1785244381091865,0.1282424890891541,0.9754603356586453,0.3450425267219543,-0.07046758383512497,-0.9359380006790161,0,0,0,-1,-1
2022-06-09T02:51:44.089+01:00,15091.58748679167,0.586639404296875,-0.210601806640625,-0.946380615234375,15091.58251179167,0.262349161551878,0.3459799659484635,0.06049741493580292,-0.4903688430786133,-0.3383433222770691,0.3359542191028595,0.06608840823173523,-0.04003391787409782,-0.03428977727890015,XArbitraryZVertical,0.007032848771101464,0.1744684970764755,0.1339487009224367,0.9754839236751969,0.3384983539581299,-0.06046051904559135,-0.9390225410461426,0,0,0,-1,-1
2022-06-09T02:51:44.160+01:00,15091.60237879167,0.5179290771484375,-0.36077880859375,-0.910736083984375,15091.58251179167,0.262349161551878,0.3459799659484635,0.06049741493580292,-0.4903688430786133,-0.3383433222770691,0.3359542191028595,0.06608840823173523,-0.04003391787409782,-0.03428977727890015,XArbitraryZVertical,0.007032848771101464,0.1744684970764755,0.1339487009224367,0.9754839236751969,0.3384983539581299,-0.06046051904559135,-0.9390225410461426,0,0,0,-1,-1
2022-06-09T02:51:44.163+01:00,15091.61730179167,0.4267730712890625,-0.26458740234375,-0.8325958251953125,15091.60237879167,0.2743156602125754,0.3330080751985615,0.05190929502529324,-1.030763745307922,-0.74382483959198,0.8081805109977722,0.2513270080089569,-0.3008972704410553,0.01805484294891357,XArbitraryZVertical,0.002699356961591947,0.1676232248385591,0.1390525881187689,0.9759915988016536,0.3264470100402832,-0.05188598483800888,-0.9437903165817261,0,0,0,-1,-1
2022-06-09T02:51:44.167+01:00,15091.63222579167,0.371368408203125,-0.16064453125,-0.7303314208984375,15091.62227679167,0.3053743106821171,0.3145142315562778,0.02845803143354428,-2.157650709152222,-1.002190828323364,1.257471680641174,0.1175437271595001,-0.2361332774162292,0.1179658770561218,XArbitraryZVertical,-0.009927613183946263,0.1569094655719422,0.1524050072412767,0.9757323182063101,0.30922931432724,-0.02845419012010098,-0.9505617022514343,0,0,0,-1,-1
2022-06-09T02:51:44.171+01:00,15091.64714879167,0.3563995361328125,-0.10113525390625,-0.6429443359375,15091.64217379167,0.3481941983197605,0.2922668595550088,-0.01315300770236673,-3.108804225921631,-1.180070638656616,1.648746013641357,0.0728783905506134,-0.1547695100307465,0.2633117437362671,XArbitraryZVertical,-0.03163054669328052,0.142282554048528,0.1704258531484327,0.9745307341442874,0.2880987823009491,0.01315262820571661,-0.9575103521347046,0,0,0,-1,-1
2022-06-09T02:51:44.175+01:00,15091.66207179167,0.331207275390625,-0.0142059326171875,-0.5628662109375,15091.64217379167,0.3481941983197605,0.2922668595550088,-0.01315300770236673,-3.108804225921631,-1.180070638656616,1.648746013641357,0.0728783905506134,-0.1547695100307465,0.2633117437362671,XArbitraryZVertical,-0.03163054669328052,0.142282554048528,0.1704258531484327,0.9745307341442874,0.2880987823009491,0.01315262820571661,-0.9575103521347046,0,0,0,-1,-1
2022-06-09T02:51:44.178+01:00,15091.67696379167,0.28717041015625,0.08648681640625,-0.4864654541015625,15091.66207179167,0.4025786910278319,0.2696959061301178,-0.07136320580703862,-4.015774726867676,-1.308228611946106,1.92074978351593,0.07956141233444214,-0.1148055270314217,0.369266152381897,XArbitraryZVertical,-0.06149822927164361,0.1245737518351087,0.1932925002792559,0.9712555514351262,0.2657601833343506,0.07130265235900879,-0.961398720741272,0,0,0,-1,-1
2022-06-09T02:51:44.181+01:00,15091.69188679167,0.2883148193359375,0.2309417724609375,-0.4185638427734375,15091.68193879167,0.4628782600126159,0.2498035341968021,-0.1455641931196887,-4.722651958465576,-1.345884442329407,1.975620627403259,0.04257126152515411,-0.05856393277645111,0.4722480177879333,XArbitraryZVertical,-0.09872732675088157,0.1043847065097754,0.218171651783949,0.9652760439330955,0.2445991188287735,0.1450506746768951,-0.9587134718894958,0,0,0,-1,-1
2022-06-09T02:51:44.191+01:00,15091.70680979167,0.3009796142578125,0.3208160400390625,-0.3383331298828125,15091.70183579167,0.5253062464766086,0.2344005110133165,-0.2321245378586541,-5.196423530578613,-1.350179076194763,1.924676537513733,0.06722794473171234,0.04362069070339203,0.5480074882507324,XArbitraryZVertical,-0.1412196405074677,0.08230123362558096,0.2430510287635596,0.9561431987167912,0.2260306924581528,0.2300456017255783,-0.9465670585632324,0,0,0,-1,-1
2022-06-09T02:51:44.207+01:00,15091.72173379167,0.3182373046875,0.2608489990234375,-0.2521820068359375,15091.70183579167,0.5253062464766086,0.2344005110133165,-0.2321245378586541,-5.196423530578613,-1.350179076194763,1.924676537513733,0.06722794473171234,0.04362069070339203,0.5480074882507324,XArbitraryZVertical,-0.1412196405074677,0.08230123362558096,0.2430510287635596,0.9561431987167912,0.2260306924581528,0.2300456017255783,-0.9465670585632324,0,0,0,-1,-1
2022-06-09T02:51:44.222+01:00,15091.736622125,0.3609771728515625,0.323394775390625,-0.24029541015625,15091.72173379167,0.5898181678353417,0.2267500491867415,-0.3289872751959387,-5.701132297515869,-1.187048435211182,1.919518351554871,0.09675395488739014,-0.03748607635498047,0.6402693390846252,XArbitraryZVertical,-0.1881158343541152,0.05949734896937783,0.2671626885674234,0.9432372518920791,0.2127552926540375,0.3230847716331482,-0.9221450090408325,0,0,0,-1,-1
2022-06-09T02:51:44.237+01:00,15091.751545125,0.3751220703125,0.547088623046875,-0.324432373046875,15091.741597125,0.6568547618994047,0.2294830399525339,-0.4360490587338265,-6.378305912017822,-1.068004608154297,1.680288314819336,0.1547883450984955,-0.09896683692932129,0.6423692107200623,XArbitraryZVertical,-0.2394489489000069,0.03649474540569643,0.289407442877381,0.9260538272860765,0.2061888128519058,0.4223615229129791,-0.882664680480957,0,0,0,-1,-1
2022-06-09T02:51:44.251+01:00,15091.766468125,0.3082275390625,0.656463623046875,-0.4155731201171875,15091.761494125,0.7259250347797817,0.2427454490617188,-0.5629804504938439,-7.475733757019043,-0.839716911315918,1.287173986434937,0.1612299531698227,0.06336724758148193,0.4439520239830017,XArbitraryZVertical,-0.2990742382001305,0.01083045063800439,0.3071206061960159,0.9033903240790029,0.2032719701528549,0.5337090492248535,-0.8208746314048767,0,0,0,-1,-1
2022-06-09T02:51:44.267+01:00,15091.781391125,0.1968231201171875,0.701263427734375,-0.368072509765625,15091.761494125,0.7259250347797817,0.2427454490617188,-0.5629804504938439,-7.475733757019043,-0.839716911315918,1.287173986434937,0.1612299531698227,0.06336724758148193,0.4439520239830017,XArbitraryZVertical,-0.2990742382001305,0.01083045063800439,0.3071206061960159,0.9033903240790029,0.2032719701528549,0.5337090492248535,-0.8208746314048767,0,0,0,-1,-1
2022-06-09T02:51:44.281+01:00,15091.796315125,0.1756134033203125,1.011672973632812,-0.472259521484375,15091.781391125,0.8033356282469627,0.2755658280097423,-0.7104414437673368,-8.387235641479492,-0.4940174221992493,1.023584723472595,0.02051061391830444,0.02852600812911987,0.3699148893356323,XArbitraryZVertical,-0.3674266399375183,-0.01616034043068091,0.3191056882540296,0.8734461505295055,0.2062654942274094,0.6521684527397156,-0.7294729948043823,0,0,0,-1,-1
2022-06-09T02:51:44.297+01:00,15091.811207125,0.2159576416015625,1.281600952148438,-0.55194091796875,15091.801289125,0.9004428170822827,0.3368853584756654,-0.8711300389329036,-8.86501407623291,-0.3727969527244568,0.6416710019111633,-0.03724780678749084,0.2466157674789429,0.1355048418045044,XArbitraryZVertical,-0.4406447149450403,-0.04415921974341159,0.3252649172453995,0.8355146596224362,0.212861180305481,0.7650571465492249,-0.6077644228935242,0,0,0,-1,-1
2022-06-09T02:51:44.311+01:00,15091.826130125,0.243011474609375,1.516250610351562,-0.6363525390625,15091.821156125,1.024282235159467,0.4283065136869689,-1.018303904010934,-7.220280647277832,-0.5943143963813782,0.6775360703468323,0.008211016654968262,0.5111312866210938,-0.1097995042800903,XArbitraryZVertical,-0.5061259072106226,-0.07165411436750849,0.3278130136854769,0.7945066672461345,0.2179699689149857,0.851219117641449,-0.4774045050144196,0,0,0,-1,-1
2022-06-09T02:51:44.326+01:00,15091.841053125,0.229095458984375,1.611328125,-0.691497802734375,15091.821156125,1.024282235159467,0.4283065136869689,-1.018303904010934,-7.220280647277832,-0.5943143963813782,0.6775360703468323,0.008211016654968262,0.5111312866210938,-0.1097995042800903,XArbitraryZVertical,-0.5061259072106226,-0.07165411436750849,0.3278130136854769,0.7945066672461345,0.2179699689149857,0.851219117641449,-0.4774045050144196,0,0,0,-1,-1
2022-06-09T02:51:44.342+01:00,15091.855976125,0.18798828125,1.430252075195312,-0.6804351806640625,15091.841053125,1.160271254070139,0.5337389970774409,-1.111809636427344,-4.173553943634033,-0.735156774520874,0.8206259608268738,0.01568974554538727,0.7124457359313965,-0.2903962433338165,XArbitraryZVertical,-0.5485331774358162,-0.09166502594665757,0.3327233175262229,0.7615799240689444,0.2253990769386292,0.896501898765564,-0.3814177513122559,0,0,0,-1,-1
2022-06-09T02:51:44.356+01:00,15091.870900125,0.1793060302734375,1.276138305664062,-0.6578826904296875,15091.860951125,1.265465870606356,0.614647928992081,-1.151942589531139,-1.942171931266785,-0.7104401588439941,0.7152403593063354,-0.04655157029628754,0.5166962742805481,-0.3481599092483521,XArbitraryZVertical,-0.5686623665742004,-0.1023985016366057,0.3398417138321989,0.7420547111854385,0.234539806842804,0.9135557413101196,-0.3322753310203552,0,0,0,-1,-1
2022-06-09T02:51:44.371+01:00,15091.885792125,0.1851348876953125,1.244232177734375,-0.625152587890625,15091.880818125,1.337916339107027,0.6670689703577586,-1.171037122750723,-1.579588294029236,-0.6952065825462341,0.4361940324306488,-0.05657094717025757,0.3413115739822388,-0.3416323959827423,XArbitraryZVertical,-0.5788447619167191,-0.1097951519160011,0.3464523859698018,0.7299687313092484,0.2407902479171753,0.9211547374725342,-0.3057675361633301,0,0,0,-1,-1
2022-06-09T02:51:44.386+01:00,15091.900715125,0.175079345703125,1.250320434570312,-0.5259552001953125,15091.880818125,1.337916339107027,0.6670689703577586,-1.171037122750723,-1.579588294029236,-0.6952065825462341,0.4361940324306488,-0.05657094717025757,0.3413115739822388,-0.3416323959827423,XArbitraryZVertical,-0.5788447619167191,-0.1097951519160011,0.3464523859698018,0.7299687313092484,0.2407902479171753,0.9211547374725342,-0.3057675361633301,0,0,0,-1,-1
2022-06-09T02:51:44.401+01:00,15091.915638125,0.223236083984375,1.228805541992188,-0.57513427734375,15091.900715125,1.400298676318303,0.7117609506393587,-1.190737964127363,-1.388173818588257,-0.6232041120529175,0.2001066952943802,-0.068679079413414,0.3098517656326294,-0.2483139336109161,XArbitraryZVertical,-0.5878759760989881,-0.1181036851758869,0.3506133074750158,0.7193911412493592,0.2423087954521179,0.9286429882049561,-0.2809067070484161,0,0,0,-1,-1
2022-06-09T02:51:44.416+01:00,15091.930561125,0.236419677734375,1.100479125976562,-0.500213623046875,15091.920613125,1.445513461788893,0.7423647332461752,-1.203994645668519,-0.7161304354667664,-0.5344705581665039,0.1297666281461716,-0.01921062171459198,0.2953263521194458,-0.3108686208724976,XArbitraryZVertical,-0.5935304220980403,-0.1248550487036491,0.353998800218127,0.7119113277511607,0.2424466609954834,0.9334791302680969,-0.2642657160758972,0,0,0,-1,-1
2022-06-09T02:51:44.431+01:00,15091.945454125,0.2787628173828125,1.084991455078125,-0.6406402587890625,15091.940510125,1.472264102787234,0.7571670516867033,-1.211912722469481,-0.6426457762718201,-0.5203472375869751,0.04529617354273796,0.005792558193206787,0.1472218036651611,-0.2715263962745667,XArbitraryZVertical,-0.5961672957943908,-0.1301940756984027,0.3568036386884488,0.7073367525054851,0.2412472069263458,0.9362894892692566,-0.2552681267261505,0,0,0,-1,-1
2022-06-09T02:51:44.447+01:00,15091.960377125,0.3074798583984375,1.157028198242188,-0.6614532470703125,15091.960377125,1.491049648105378,0.7624842587902702,-1.219421270851005,-0.2333814054727554,-0.7293611764907837,-0.08432669192552567,0.06928367912769318,0.1768071055412292,-0.4127607643604279,XArbitraryZVertical,-0.5974428532109952,-0.1364425197743001,0.3596562268078029,0.7036283998207896,0.2377384155988693,0.9389002919197083,-0.2488909512758255,0,0,0,-1,-1
2022-06-09T02:51:44.462+01:00,15091.975300125,0.263397216796875,1.26922607421875,-0.55316162109375,15091.960377125,1.491049648105378,0.7624842587902702,-1.219421270851005,-0.2333814054727554,-0.7293611764907837,-0.08432669192552567,0.06928367912769318,0.1768071055412292,-0.4127607643604279,XArbitraryZVertical,-0.5974428532109952,-0.1364425197743001,0.3596562268078029,0.7036283998207896,0.2377384155988693,0.9389002919197083,-0.2488909512758255,0,0,0,-1,-1
2022-06-09T02:51:44.475+01:00,15091.990223125,0.2104644775390625,1.159133911132812,-0.493499755859375,15091.980275125,1.474976298967891,0.7326219600788314,-1.218152707542208,0.6509393453598022,-0.7107622027397156,-0.2328683584928513,0.03239975869655609,0.330763041973114,-0.2963982224464417,XArbitraryZVertical,-0.5928961394874743,-0.1417477261519708,0.3632524197535035,0.7045774761121288,0.2309973984956741,0.9384629130363464,-0.2567634880542755,0,0,0,-1,-1
2022-06-09T02:51:44.491+01:00,15092.005146125,0.2061614990234375,1.014999389648438,-0.48065185546875,15092.000172125,1.434533924576874,0.6812244160938462,-1.210424266792324,0.679037868976593,-0.6972519159317017,-0.3631269335746765,-0.01469506323337555,0.17635577917099,-0.2173695862293243,XArbitraryZVertical,-0.5847081281812154,-0.1454562730897192,0.3662869194160892,0.7090787620578508,0.2220619767904282,0.9357656836509705,-0.2739177644252777,0,0,0,-1,-1
2022-06-09T02:51:44.506+01:00,15092.020039125,0.18096923828125,1.057601928710938,-0.38226318359375,15092.020039125,1.399435197654051,0.6344071274053938,-1.208916958305704,0.08361990004777908,-0.7049867510795593,-0.5335986614227295,-0.01993946731090546,0.08103269338607788,-0.1168011426925659,XArbitraryZVertical,-0.5783642718318872,-0.1513994187705259,0.3678441348894463,0.7122244421482108,0.2098350822925568,0.9352331161499023,-0.2851459681987762,0,0,0,-1,-1
2022-06-09T02:51:44.520+01:00,15092.034962125,0.194671630859375,1.236618041992188,-0.34954833984375,15092.020039125,1.399435197654051,0.6344071274053938,-1.208916958305704,0.08361990004777908,-0.7049867510795593,-0.5335986614227295,-0.01993946731090546,0.08103269338607788,-0.1168011426925659,XArbitraryZVertical,-0.5783642718318872,-0.1513994187705259,0.3678441348894463,0.7122244421482108,0.2098350822925568,0.9352331161499023,-0.2851459681987762,0,0,0,-1,-1
2022-06-09T02:51:44.535+01:00,15092.049885125,0.2275390625,1.10809326171875,-0.4134521484375,15092.039936125,1.379526980988367,0.6019056740111868,-1.222051304478751,-0.6454746127128601,-0.7447400093078613,-0.7677317261695862,0.001185595989227295,0.2968156933784485,-0.06788402795791626,XArbitraryZVertical,-0.5771685755799463,-0.1613822392846045,0.3665994725199955,0.7116439193455543,0.1934860050678253,0.9398022890090942,-0.2816644310951233,0,0,0,-1,-1
2022-06-09T02:51:44.550+01:00,15092.064808125,0.1805877685546875,1.1607666015625,-0.2486114501953125,15092.059834125,1.355583678200359,0.5639855376394488,-1.233741064526816,0.1022162884473801,-0.8059455156326294,-0.6135112643241882,0.04401099681854248,0.1516042351722717,-0.0366082489490509,XArbitraryZVertical,-0.5751537133756437,-0.1716150997858002,0.3659041511054223,0.7112387825737306,0.1767836362123489,0.9437326192855835,-0.2794929146766663,0,0,0,-1,-1
2022-06-09T02:51:44.624+01:00,15092.079731125,0.1250152587890625,1.079605102539062,-0.269195556640625,15092.059834125,1.355583678200359,0.5639855376394488,-1.233741064526816,0.1022162884473801,-0.8059455156326294,-0.6135112643241882,0.04401099681854248,0.1516042351722717,-0.0366082489490509,XArbitraryZVertical,-0.5751537133756437,-0.1716150997858002,0.3659041511054223,0.7112387825737306,0.1767836362123489,0.9437326192855835,-0.2794929146766663,0,0,0,-1,-1
2022-06-09T02:51:44.713+01:00,15092.094624125,0.1181488037109375,0.861541748046875,-0.3474884033203125,15092.079731125,1.309048042293558,0.5041870653858244,-1.233214508751712,0.7734721899032593,-0.7942719459533691,-0.6917535662651062,-0.01330631971359253,0.1843101382255554,0.01199331879615784,XArbitraryZVertical,-0.5681492034318444,-0.1794710417597391,0.3665425637489635,0.7145929135775012,0.1600042581558228,0.9435583353042603,-0.2899932563304901,0,0,0,-1,-1
2022-06-09T02:51:44.727+01:00,15092.109547125,0.1333770751953125,0.839141845703125,-0.320465087890625,15092.099598125,1.250244496119558,0.4328125989344669,-1.220793956764935,1.205593824386597,-0.7954555153846741,-0.5023280382156372,-0.0256723016500473,-0.07783019542694092,-0.03620743751525879,XArbitraryZVertical,-0.5569195269668838,-0.184932759499337,0.3685355009023877,0.7209868634249899,0.1438210606575012,0.9393718838691711,-0.3112810254096985,0,0,0,-1,-1
2022-06-09T02:51:44.735+01:00,15092.124470125,0.1501922607421875,0.91693115234375,-0.360260009765625,15092.119496125,1.19794189192741,0.3676643931499428,-1.20642816544873,0.7243034243583679,-0.8368276953697205,-0.645327627658844,0.005654767155647278,-0.05687737464904785,0.009575456380844116,XArbitraryZVertical,-0.5455133382719765,-0.1901149196907335,0.370821915221684,0.7271605441400671,0.1280884593725204,0.9343491196632385,-0.3325430154800415,0,0,0,-1,-1
2022-06-09T02:51:44.742+01:00,15092.139393125,0.1163787841796875,1.039947509765625,-0.3266143798828125,15092.119496125,1.19794189192741,0.3676643931499428,-1.20642816544873,0.7243034243583679,-0.8368276953697205,-0.645327627658844,0.005654767155647278,-0.05687737464904785,0.009575456380844116,XArbitraryZVertical,-0.5455133382719765,-0.1901149196907335,0.370821915221684,0.7271605441400671,0.1280884593725204,0.9343491196632385,-0.3325430154800415,0,0,0,-1,-1
2022-06-09T02:51:44.749+01:00,15092.154286125,0.0613250732421875,1.113540649414062,-0.3533935546875,15092.139393125,1.154012012364207,0.3096578729088452,-1.200624416683125,0.3853777647018433,-0.8579568862915039,-0.6480230689048767,0.02824380993843079,0.05717569589614868,0.008875429630279541,XArbitraryZVertical,-0.5371956023983501,-0.1978293172154761,0.3717438298883172,0.7308152811407914,0.1102449223399162,0.9322651624679565,-0.3445688784122467,0,0,0,-1,-1
2022-06-09T02:51:44.756+01:00,15092.169209125,0.0513916015625,1.0924072265625,-0.3946990966796875,15092.159260125,1.112663961557683,0.2544284357694127,-1.196056371234791,0.5626402497291565,-0.8237072825431824,-0.6655184030532837,-0.03080201148986816,0.1829377412796021,0.0008533000946044922,XArbitraryZVertical,-0.5296167155544653,-0.2058705479451795,0.3722409270054624,0.7338665184969914,0.09212703257799149,0.9306028485298157,-0.3542469143867493,0,0,0,-1,-1
2022-06-09T02:51:44.761+01:00,15092.184132125,0.02337646484375,1.045074462890625,-0.432342529296875,15092.179158125,1.067856991399694,0.1956328378940047,-1.185324808486546,0.8113022446632385,-0.8882506489753723,-0.7278491258621216,-0.0240623727440834,0.1519919037818909,-0.04301115870475769,XArbitraryZVertical,-0.5197529549856537,-0.2131784553792532,0.3731505598104691,0.7383564820099646,0.07308882474899292,0.9266212582588196,-0.3688236176967621,0,0,0,-1,-1
2022-06-09T02:51:44.767+01:00,15092.199055125,-0.0259246826171875,1.096603393554688,-0.4468994140625,15092.199055125,1.020152736001237,0.1343209708048592,-1.170580036933323,0.8497368097305298,-0.8871796727180481,-0.8734503984451294,-0.06452096253633499,0.1378304958343506,-0.06018120050430298,XArbitraryZVertical,-0.5083447366733426,-0.2202990822680973,0.373704115514942,0.7439079656788823,0.05217655748128891,0.9209767580032349,-0.3861078917980194,0,0,0,-1,-1
2022-06-09T02:51:44.771+01:00,15092.213978125,-0.0424041748046875,0.9944305419921875,-0.5140838623046875,15092.199055125,1.020152736001237,0.1343209708048592,-1.170580036933323,0.8497368097305298,-0.8871796727180481,-0.8734503984451294,-0.06452096253633499,0.1378304958343506,-0.06018120050430298,XArbitraryZVertical,-0.5083447366733426,-0.2202990822680973,0.373704115514942,0.7439079656788823,0.05217655748128891,0.9209767580032349,-0.3861078917980194,0,0,0,-1,-1
2022-06-09T02:51:44.777+01:00,15092.228871125,-0.0444183349609375,1.045852661132812,-0.5307769775390625,15092.218952125,0.9723494361462804,0.07182132150051605,-1.154491604420751,0.9544320702552795,-0.9780012965202332,-0.8425239324569702,-0.07142260670661926,0.07984107732772827,-0.1107429265975952,XArbitraryZVertical,-0.4962302251084134,-0.2282214413760489,0.3739636336377514,0.7495477040669257,0.02901840209960938,0.9145894646644592,-0.4033410847187042,0,0,0,-1,-1
2022-06-09T02:51:44.782+01:00,15092.243794125,-0.0528411865234375,0.97662353515625,-0.502166748046875,15092.238819125,0.926603934359268,0.009006083086629474,-1.139037962901615,0.8009358048439026,-1.121886968612671,-0.9484917521476746,-0.04110699892044067,0.1241629719734192,-0.1362209618091583,XArbitraryZVertical,-0.4840725593775516,-0.237588080106712,0.3741892576159377,0.7544587123550538,0.003768709255382419,0.9082313179969788,-0.4184513092041016,0,0,0,-1,-1
2022-06-09T02:51:44.786+01:00,15092.258717125,-0.0885009765625,1.004196166992188,-0.4528350830078125,15092.238819125,0.926603934359268,0.009006083086629474,-1.139037962901615,0.8009358048439026,-1.121886968612671,-0.9484917521476746,-0.04110699892044067,0.1241629719734192,-0.1362209618091583,XArbitraryZVertical,-0.4840725593775516,-0.237588080106712,0.3741892576159377,0.7544587123550538,0.003768709255382419,0.9082313179969788,-0.4184513092041016,0,0,0,-1,-1
2022-06-09T02:51:44.791+01:00,15092.273640125,-0.127349853515625,0.9477691650390625,-0.3825225830078125,15092.258717125,0.8836859014514975,-0.05251473355023184,-1.120056839042066,1.080150961875916,-1.137064099311829,-0.9655605554580688,-0.05953094363212585,0.09122294187545776,-0.03826650977134705,XArbitraryZVertical,-0.4705185080347831,-0.2471780875626361,0.3747674029957828,0.7596477209520776,-0.02286654338240623,0.9001252055168152,-0.4350306391716003,0,0,0,-1,-1
2022-06-09T02:51:44.796+01:00,15092.288563125,-0.1625213623046875,0.8014373779296875,-0.3460540771484375,15092.278614125,0.8438052461668882,-0.1098572068178837,-1.094560492785283,1.296616673469543,-1.032055497169495,-1.00028669834137,-0.07708853483200073,0.05904215574264526,0.07315072417259216,XArbitraryZVertical,-0.4548223483994978,-0.2555385722725324,0.3752232174273739,0.7661879854639339,-0.05026135966181755,0.8887268304824829,-0.4556733369827271,0,0,0,-1,-1
2022-06-09T02:51:44.802+01:00,15092.303456125,-0.1853485107421875,0.7623748779296875,-0.355133056640625,15092.298481125,0.8110523331412979,-0.1577355853997957,-1.066166631026208,1.293892741203308,-0.8751726150512695,-0.9437626600265503,-0.09481444954872131,-0.1073177456855774,0.1348907351493835,XArbitraryZVertical,-0.4387542150607051,-0.2622101424013257,0.3754977669481292,0.7731377855601764,-0.07594668120145798,0.8753535747528076,-0.4774811565876007,0,0,0,-1,-1
2022-06-09T02:51:44.837+01:00,15092.318379125,-0.1836700439453125,0.778106689453125,-0.391357421875,15092.318379125,0.7800756545202275,-0.200618528628174,-1.040300669375398,0.9791581630706787,-0.7452412247657776,-1.037337303161621,-0.08607932925224304,-0.07811737060546875,0.1142364740371704,XArbitraryZVertical,-0.4243315090202914,-0.2683956355192366,0.3743113735291708,0.7796136996221943,-0.1008256077766418,0.8625563979148865,-0.4958131015300751,0,0,0,-1,-1
2022-06-09T02:51:44.933+01:00,15092.333302125,-0.1680755615234375,0.783233642578125,-0.4468536376953125,15092.318379125,0.7800756545202275,-0.200618528628174,-1.040300669375398,0.9791581630706787,-0.7452412247657776,-1.037337303161621,-0.08607932925224304,-0.07811737060546875,0.1142364740371704,XArbitraryZVertical,-0.4243315090202914,-0.2683956355192366,0.3743113735291708,0.7796136996221943,-0.1008256077766418,0.8625563979148865,-0.4958131015300751,0,0,0,-1,-1
2022-06-09T02:51:44.940+01:00,15092.348225125,-0.1393890380859375,0.78546142578125,-0.485687255859375,15092.338276125,0.7481473862340248,-0.2424323953596746,-1.019243023888501,0.7381549477577209,-0.7320612668991089,-1.018919110298157,-0.04227916896343231,-0.06847810745239258,0.06183332204818726,XArbitraryZVertical,-0.412207867855356,-0.2752111709532031,0.3715478055006345,0.7850449246196626,-0.1257964074611664,0.851711630821228,-0.5086869597434998,0,0,0,-1,-1
2022-06-09T02:51:44.945+01:00,15092.363118125,-0.139739990234375,0.8040924072265625,-0.49456787109375,15092.358174125,0.7199090865536848,-0.2805742202328072,-0.9995750400265303,0.803770899772644,-0.6919117569923401,-0.960147500038147,0.01201739907264709,-0.04960012435913086,0.02807825803756714,XArbitraryZVertical,-0.4008922305374552,-0.2820041601416256,0.3688274089032728,0.789762841950471,-0.1497127264738083,0.8412413001060486,-0.5195181369781494,0,0,0,-1,-1
2022-06-09T02:51:44.950+01:00,15092.378041125,-0.1526031494140625,0.8196868896484375,-0.500823974609375,15092.378041125,0.6971396778712674,-0.3129279887520471,-0.9767349004457473,1.003234148025513,-0.6440192461013794,-0.9186270236968994,0.02239321172237396,-0.02133184671401978,0.03100728988647461,XArbitraryZVertical,-0.3885810585920834,-0.2876291555932977,0.3666564836628189,0.7948818007299344,-0.1723108291625977,0.8286741971969604,-0.5325484871864319,0,0,0,-1,-1
2022-06-09T02:51:44.955+01:00,15092.392964125,-0.1539154052734375,0.802001953125,-0.49615478515625,15092.378041125,0.6971396778712674,-0.3129279887520471,-0.9767349004457473,1.003234148025513,-0.6440192461013794,-0.9186270236968994,0.02239321172237396,-0.02133184671401978,0.03100728988647461,XArbitraryZVertical,-0.3885810585920834,-0.2876291555932977,0.3666564836628189,0.7948818007299344,-0.1723108291625977,0.8286741971969604,-0.5325484871864319,0,0,0,-1,-1
2022-06-09T02:51:44.960+01:00,15092.407887125,-0.1658935546875,0.7370758056640625,-0.4692230224609375,15092.397938125,0.6776339459555747,-0.3413092932587981,-0.9518886550909349,0.9716236591339111,-0.6021312475204468,-0.9468476176261902,0.04027162492275238,-0.01251083612442017,0.05052649974822998,XArbitraryZVertical,-0.3756802679298197,-0.2924443259175314,0.3645280142760074,0.8002873781719871,-0.1941870450973511,0.8145126700401306,-0.54668128490448,0,0,0,-1,-1
2022-06-09T02:51:44.966+01:00,15092.422810125,-0.190277099609375,0.70819091796875,-0.4737548828125,15092.417836125,0.6589966172422024,-0.3678316541775538,-0.9283456141921048,0.9011094570159912,-0.540834367275238,-0.888161838054657,0.04382261633872986,-0.08581662178039551,0.08998012542724609,XArbitraryZVertical,-0.3635427876396561,-0.2971465428797099,0.361921043307793,0.8053283444826764,-0.2154534906148911,0.8006297945976257,-0.5590811371803284,0,0,0,-1,-1
2022-06-09T02:51:44.973+01:00,15092.437702125,-0.1992950439453125,0.724365234375,-0.489044189453125,15092.417836125,0.6589966172422024,-0.3678316541775538,-0.9283456141921048,0.9011094570159912,-0.540834367275238,-0.888161838054657,0.04382261633872986,-0.08581662178039551,0.08998012542724609,XArbitraryZVertical,-0.3635427876396561,-0.2971465428797099,0.361921043307793,0.8053283444826764,-0.2154534906148911,0.8006297945976257,-0.5590811371803284,0,0,0,-1,-1
2022-06-09T02:51:44.978+01:00,15092.452626125,-0.1969757080078125,0.747772216796875,-0.489990234375,15092.437702125,0.6436230063144145,-0.3896303691509715,-0.9059539854761636,0.8360990285873413,-0.4216404259204865,-0.8198712468147278,0.03301613032817841,-0.06142807006835938,0.08590847253799438,XArbitraryZVertical,-0.3522703662399898,-0.3009282649164418,0.3593801626003792,0.8100578663704547,-0.2343406528234482,0.7870140671730042,-0.5706955194473267,0,0,0,-1,-1
2022-06-09T02:51:44.985+01:00,15092.467549125,-0.2224273681640625,0.7738494873046875,-0.5054473876953125,15092.457600125,0.6292242979279156,-0.4084247570037856,-0.8860169562930893,0.6321601867675781,-0.3436815738677979,-0.7967219352722168,0.05423146486282349,-0.0267864465713501,0.09048706293106079,XArbitraryZVertical,-0.342452634005685,-0.3041176141553291,0.3564297493244376,0.8143688049501097,-0.251207172870636,0.7745586037635803,-0.5804773569107056,0,0,0,-1,-1
2022-06-09T02:51:44.990+01:00,15092.482472125,-0.238922119140625,0.7436676025390625,-0.5190887451171875,15092.477497125,0.6136698292904007,-0.4263624374740766,-0.869241790617203,0.5273476243019104,-0.2570840716362,-0.7887716293334961,0.03627848625183105,0.005401372909545898,0.07480913400650024,XArbitraryZVertical,-0.3343516556621758,-0.3072388281116987,0.3526845659315175,0.8181849994003554,-0.2669150531291962,0.7638397812843323,-0.5876265168190002,0,0,0,-1,-1
2022-06-09T02:51:44.998+01:00,15092.497395125,-0.23773193359375,0.7157745361328125,-0.530029296875,15092.477497125,0.6136698292904007,-0.4263624374740766,-0.869241790617203,0.5273476243019104,-0.2570840716362,-0.7887716293334961,0.03627848625183105,0.005401372909545898,0.07480913400650024,XArbitraryZVertical,-0.3343516556621758,-0.3072388281116987,0.3526845659315175,0.8181849994003554,-0.2669150531291962,0.7638397812843323,-0.5876265168190002,0,0,0,-1,-1
2022-06-09T02:51:45.005+01:00,15092.512287125,-0.2299041748046875,0.716949462890625,-0.5442657470703125,15092.497395125,0.5993914604384816,-0.4415917386354182,-0.8534568381570768,0.5118306875228882,-0.1779522299766541,-0.7325246334075928,0.04189190268516541,-0.03190833330154419,0.06658059358596802,XArbitraryZVertical,-0.3269870086697212,-0.3097078380538805,0.3488354592006295,0.8218724301910318,-0.2809513509273529,0.7535573840141296,-0.5943211317062378,0,0,0,-1,-1
2022-06-09T02:51:45.017+01:00,15092.527211125,-0.244476318359375,0.7151031494140625,-0.5396881103515625,15092.517262125,0.5856886700510123,-0.4546802254746644,-0.8391123529880221,0.3844407796859741,-0.1174874603748322,-0.7144979238510132,0.06351897120475769,-0.02710103988647461,0.05597740411758423,XArbitraryZVertical,-0.3205564984471874,-0.311643957886522,0.3447598081351521,0.825386063947566,-0.2934231758117676,0.7440503835678101,-0.6002431511878967,0,0,0,-1,-1
2022-06-09T02:51:45.027+01:00,15092.542134125,-0.2799072265625,0.7261505126953125,-0.539398193359375,15092.537159125,0.5717297752134244,-0.4667073353006209,-0.8264225145697163,0.3486487865447998,-0.05595557391643524,-0.6874850988388062,0.04662048816680908,-0.012459397315979,0.06709074974060059,XArbitraryZVertical,-0.3150956727751617,-0.3133486787801875,0.3403419316046501,0.8286703877776087,-0.304845005273819,0.7355123162269592,-0.6050546169281006,0,0,0,-1,-1
2022-06-09T02:51:45.044+01:00,15092.557057125,-0.2785186767578125,0.720947265625,-0.559967041015625,15092.557057125,0.5597295272077109,-0.4759537752588214,-0.8127153896910411,0.5408663153648376,0.01504826825112104,-0.6645520329475403,0.03532296419143677,0.001122832298278809,0.0520172119140625,XArbitraryZVertical,-0.3093671850876848,-0.3142207285236524,0.336134259668295,0.8322085853161594,-0.3150165677070618,0.7261567711830139,-0.6111145615577698,0,0,0,-1,-1
2022-06-09T02:51:45.057+01:00,15092.571949125,-0.278564453125,0.6760101318359375,-0.538238525390625,15092.557057125,0.5597295272077109,-0.4759537752588214,-0.8127153896910411,0.5408663153648376,0.01504826825112104,-0.6645520329475403,0.03532296419143677,0.001122832298278809,0.0520172119140625,XArbitraryZVertical,-0.3093671850876848,-0.3142207285236524,0.336134259668295,0.8322085853161594,-0.3150165677070618,0.7261567711830139,-0.6111145615577698,0,0,0,-1,-1
2022-06-09T02:51:45.072+01:00,15092.586872125,-0.2765045166015625,0.655242919921875,-0.5399169921875,15092.576924125,0.5520575401050876,-0.480137166652722,-0.7960944870163768,0.6467593908309937,0.1179934740066528,-0.5802230834960938,0.04453656077384949,-0.03861957788467407,0.082172691822052,XArbitraryZVertical,-0.3025156139913404,-0.3134943078891377,0.3327001226612167,0.8363707805754168,-0.3231009840965271,0.7146296501159668,-0.620411217212677,0,0,0,-1,-1
2022-06-09T02:51:45.090+01:00,15092.601796125,-0.2841644287109375,0.6388702392578125,-0.5366668701171875,15092.596821125,0.5451949450420051,-0.4820953554287445,-0.7811525299172895,0.4370030164718628,0.1812066733837128,-0.5518507361412048,0.05188581347465515,-0.0587126612663269,0.0900910496711731,XArbitraryZVertical,-0.2966310690225903,-0.312130704896298,0.3292899517232217,0.8403288522637886,-0.3292296230792999,0.7040982842445374,-0.6291688680648804,0,0,0,-1,-1
2022-06-09T02:51:45.103+01:00,15092.616719125,-0.2980194091796875,0.610931396484375,-0.56719970703125,15092.616719125,0.5357114118085052,-0.4848781137225539,-0.7708230764436036,0.1841097325086594,0.207792803645134,-0.5032148361206055,0.04249653220176697,-0.06922352313995361,0.07883459329605103,XArbitraryZVertical,-0.2930551973312723,-0.3111157501705608,0.3251112758339771,0.8435807071226052,-0.3343513906002045,0.6967259049415588,-0.6346513032913208,0,0,0,-1,-1
2022-06-09T02:51:45.117+01:00,15092.631642125,-0.329254150390625,0.5766143798828125,-0.576995849609375,15092.616719125,0.5357114118085052,-0.4848781137225539,-0.7708230764436036,0.1841097325086594,0.207792803645134,-0.5032148361206055,0.04249653220176697,-0.06922352313995361,0.07883459329605103,XArbitraryZVertical,-0.2930551973312723,-0.3111157501705608,0.3251112758339771,0.8435807071226052,-0.3343513906002045,0.6967259049415588,-0.6346513032913208,0,0,0,-1,-1
2022-06-09T02:51:45.142+01:00,15092.646534125,-0.3482513427734375,0.583038330078125,-0.570953369140625,15092.636616125,0.5254911055813613,-0.4876750379748364,-0.7646449259857599,0.03704347833991051,0.2140304893255234,-0.4498785734176636,0.008881479501724243,-0.1156665086746216,0.06050825119018555,XArbitraryZVertical,-0.2914356318207653,-0.3103436964850583,0.3208318193857366,0.8460608302171092,-0.3381356298923492,0.6922808289527893,-0.6375041007995605,0,0,0,-1,-1
2022-06-09T02:51:45.148+01:00,15092.661457125,-0.36968994140625,0.585174560546875,-0.542816162109375,15092.656483125,0.5149296508671425,-0.4909963558058532,-0.7602693257886366,0.004075740464031696,0.1957759410142899,-0.42937833070755,-0.01312121748924255,-0.1029197573661804,0.07756507396697998,XArbitraryZVertical,-0.2905893280081471,-0.3098974461742763,0.3165695207884917,0.8481186636708263,-0.3416761755943298,0.6891166567802429,-0.639042854309082,0,0,0,-1,-1
2022-06-09T02:51:45.163+01:00,15092.676380125,-0.3730926513671875,0.5980682373046875,-0.53607177734375,15092.656483125,0.5149296508671425,-0.4909963558058532,-0.7602693257886366,0.004075740464031696,0.1957759410142899,-0.42937833070755,-0.01312121748924255,-0.1029197573661804,0.07756507396697998,XArbitraryZVertical,-0.2905893280081471,-0.3098974461742763,0.3165695207884917,0.8481186636708263,-0.3416761755943298,0.6891166567802429,-0.639042854309082,0,0,0,-1,-1
2022-06-09T02:51:45.177+01:00,15092.691304125,-0.36285400390625,0.607391357421875,-0.5425872802734375,15092.676380125,0.5049580889872654,-0.4937952790287335,-0.7558204609506548,0.02899413928389549,0.2116264551877975,-0.4224674701690674,-0.03301659226417542,-0.09260910749435425,0.1056666374206543,XArbitraryZVertical,-0.2897028141939846,-0.3093278646383796,0.3124559956105503,0.8501527088010319,-0.3449130952358246,0.6858859658241272,-0.6407771110534668,0,0,0,-1,-1
2022-06-09T02:51:45.192+01:00,15092.706227125,-0.3790740966796875,0.629669189453125,-0.56683349609375,15092.696278125,0.4949757706544967,-0.4967576377208926,-0.751538134297941,0.006835062988102436,0.1801054775714874,-0.4170834720134735,-0.01464760303497314,-0.07537209987640381,0.09974157810211182,XArbitraryZVertical,-0.2888677923057774,-0.3088542751013814,0.3083524679088252,0.852105091331695,-0.3482064008712769,0.682763397693634,-0.6423288583755493,0,0,0,-1,-1
2022-06-09T02:51:45.209+01:00,15092.721119125,-0.3980712890625,0.6413726806640625,-0.5946807861328125,15092.716145125,0.4853904739612581,-0.4998619251655833,-0.7475738200797128,0.007238132879137993,0.1670446395874023,-0.3915247619152069,-0.03415736556053162,-0.03706991672515869,0.05802875757217407,XArbitraryZVertical,-0.2880940681230649,-0.3085354639309355,0.3044414698091235,0.8538870128308376,-0.3514932990074158,0.6798615455627441,-0.6436153650283813,0,0,0,-1,-1
2022-06-09T02:51:45.221+01:00,15092.736042125,-0.379058837890625,0.694427490234375,-0.611175537109375,15092.736042125,0.476636484757321,-0.5028554477683433,-0.7438736225666966,-0.03313565626740456,0.1286482363939285,-0.3647397458553314,-0.03794980049133301,-0.004200398921966553,0.04220569133758545,XArbitraryZVertical,-0.2873301466292913,-0.3083202250722041,0.3008715693771941,0.8554859626054075,-0.3546282947063446,0.677143394947052,-0.6447600722312927,0,0,0,-1,-1
2022-06-09T02:51:45.242+01:00,15092.750972625,-0.330963134765625,0.7064971923828125,-0.637359619140625,15092.736042125,0.476636484757321,-0.5028554477683433,-0.7438736225666966,-0.03313565626740456,0.1286482363939285,-0.3647397458553314,-0.03794980049133301,-0.004200398921966553,0.04220569133758545,XArbitraryZVertical,-0.2873301466292913,-0.3083202250722041,0.3008715693771941,0.8554859626054075,-0.3546282947063446,0.677143394947052,-0.6447600722312927,0,0,0,-1,-1
2022-06-09T02:51:45.251+01:00,15092.765896625,-0.308135986328125,0.70916748046875,-0.6675567626953125,15092.755947625,0.4666258968705473,-0.5073742499800453,-0.7425402250450713,-0.2124072760343552,0.0962420180439949,-0.3431804776191711,0.02701345086097717,0.03033548593521118,0.006579935550689697,XArbitraryZVertical,-0.2875998707510423,-0.3087337863094147,0.2971402972310861,0.8565496067353091,-0.3579765856266022,0.6761615872383118,-0.6439395546913147,0,0,0,-1,-1
2022-06-09T02:51:45.266+01:00,15092.780788625,-0.322296142578125,0.7348480224609375,-0.652191162109375,15092.775844625,0.4546349084521565,-0.5136964840032426,-0.7436120560273282,-0.2803320288658142,0.1072454527020454,-0.3810670077800751,0.05122891068458557,0.03711456060409546,-0.02434283494949341,XArbitraryZVertical,-0.2890028861132208,-0.3097762975399718,0.292994202704714,0.8571291189773468,-0.3616842329502106,0.6769508719444275,-0.6410319805145264,0,0,0,-1,-1
2022-06-09T02:51:45.282+01:00,15092.795711625,-0.3277587890625,0.7490234375,-0.6636810302734375,15092.775844625,0.4546349084521565,-0.5136964840032426,-0.7436120560273282,-0.2803320288658142,0.1072454527020454,-0.3810670077800751,0.05122891068458557,0.03711456060409546,-0.02434283494949341,XArbitraryZVertical,-0.2890028861132208,-0.3097762975399718,0.292994202704714,0.8571291189773468,-0.3616842329502106,0.6769508719444275,-0.6410319805145264,0,0,0,-1,-1
2022-06-09T02:51:45.295+01:00,15092.810634625,-0.328094482421875,0.721710205078125,-0.678314208984375,15092.795711625,0.4419163284526849,-0.5195994520174029,-0.7433504200907189,-0.1384501457214355,0.1678926050662994,-0.4363161325454712,0.03686025738716125,0.07549989223480225,-0.01483011245727539,XArbitraryZVertical,-0.289999451289713,-0.310452184639047,0.2883746200068011,0.8581141077796964,-0.3655498325824738,0.6767582893371582,-0.6390395164489746,0,0,0,-1,-1
2022-06-09T02:51:45.311+01:00,15092.825557625,-0.3426513671875,0.691253662109375,-0.7006378173828125,15092.815609625,0.4304850470472886,-0.5235134817469709,-0.7402383196649172,-0.05334913730621338,0.2156907021999359,-0.4639636874198914,0.04100489616394043,0.04724621772766113,-0.03888946771621704,XArbitraryZVertical,-0.2898141473812307,-0.3103149331436369,0.2837854565551917,0.8597547059111983,-0.3690993785858154,0.6744638681411743,-0.6394248008728027,0,0,0,-1,-1
2022-06-09T02:51:45.326+01:00,15092.840480625,-0.3559112548828125,0.670562744140625,-0.7155609130859375,15092.835506625,0.4188514847745859,-0.5267340837467287,-0.7361172538418931,-0.02201307378709316,0.2470166385173798,-0.4730027616024017,0.02455896139144897,0.006929099559783936,-0.06957507133483887,XArbitraryZVertical,-0.2893097789511555,-0.3098141543555268,0.2789087617484473,0.8616988123823776,-0.372550904750824,0.6714155673980713,-0.6406300663948059,0,0,0,-1,-1
2022-06-09T02:51:45.341+01:00,15092.855373625,-0.3746185302734375,0.6674957275390625,-0.721588134765625,15092.835506625,0.4188514847745859,-0.5267340837467287,-0.7361172538418931,-0.02201307378709316,0.2470166385173798,-0.4730027616024017,0.02455896139144897,0.006929099559783936,-0.06957507133483887,XArbitraryZVertical,-0.2893097789511555,-0.3098141543555268,0.2789087617484473,0.8616988123823776,-0.372550904750824,0.6714155673980713,-0.6406300663948059,0,0,0,-1,-1
2022-06-09T02:51:45.356+01:00,15092.870296625,-0.3909759521484375,0.6705169677734375,-0.745819091796875,15092.855373625,0.4073366413932898,-0.529443997935532,-0.731880116281042,-0.04414524883031845,0.2549401819705963,-0.4856928884983063,0.007875442504882812,0.001759171485900879,-0.07364571094512939,XArbitraryZVertical,-0.2888078586160587,-0.3091214882493025,0.2739788209595493,0.8636953140574271,-0.3757191002368927,0.6682694554328918,-0.6420678496360779,0,0,0,-1,-1
2022-06-09T02:51:45.371+01:00,15092.885219625,-0.4015960693359375,0.6797332763671875,-0.71771240234375,15092.875271625,0.3953193352526491,-0.5325849781369418,-0.7280928400514742,-0.1134227216243744,0.2290247082710266,-0.4765892326831818,-0.01195961236953735,0.00506967306137085,-0.1027588248252869,XArbitraryZVertical,-0.2885293097407739,-0.3085784742643756,0.2689120415159832,0.8655729322370663,-0.3790163397789001,0.6654472351074219,-0.6430603265762329,0,0,0,-1,-1
2022-06-09T02:51:45.385+01:00,15092.900142625,-0.411773681640625,0.6806640625,-0.6842803955078125,15092.895168625,0.38183899215232,-0.5372512775949593,-0.7259945631121874,-0.2202504724264145,0.2156380265951157,-0.5026999115943909,-0.02387428283691406,0.01779145002365112,-0.06338876485824585,XArbitraryZVertical,-0.2890410343438399,-0.3085674604725823,0.2635619545879913,0.8670503473877624,-0.3827266097068787,0.6638795733451843,-0.6424828171730042,0,0,0,-1,-1
2022-06-09T02:51:45.400+01:00,15092.915065625,-0.400909423828125,0.6376953125,-0.6557159423828125,15092.895168625,0.38183899215232,-0.5372512775949593,-0.7259945631121874,-0.2202504724264145,0.2156380265951157,-0.5026999115943909,-0.02387428283691406,0.01779145002365112,-0.06338876485824585,XArbitraryZVertical,-0.2890410343438399,-0.3085674604725823,0.2635619545879913,0.8670503473877624,-0.3827266097068787,0.6638795733451843,-0.6424828171730042,0,0,0,-1,-1
2022-06-09T02:51:45.415+01:00,15092.929958625,-0.3805999755859375,0.6204071044921875,-0.6399078369140625,15092.915065625,0.3669809952304816,-0.5426209976695207,-0.7248788752667142,-0.2354959696531296,0.2367155700922012,-0.5000030398368835,-0.0216803252696991,-0.01118946075439453,-0.02070611715316772,XArbitraryZVertical,-0.2901303068802886,-0.3087041431758576,0.2577920291287401,0.8683716059946566,-0.3865532577037811,0.6630447506904602,-0.6410523056983948,0,0,0,-1,-1
2022-06-09T02:51:45.430+01:00,15092.944881625,-0.3583831787109375,0.640625,-0.6368865966796875,15092.934932625,0.3531869977706253,-0.5467922937412449,-0.7231005465847373,-0.1352652013301849,0.2702977955341339,-0.4777697324752808,0.009236454963684082,-0.04130548238754272,0.000532686710357666,XArbitraryZVertical,-0.2909235700221856,-0.3084529007386374,0.252237965060893,0.8698254380469636,-0.3898364305496216,0.6617125272750854,-0.6404405832290649,0,0,0,-1,-1
2022-06-09T02:51:45.444+01:00,15092.959804625,-0.3594970703125,0.6339111328125,-0.6448822021484375,15092.954830625,0.3413384313923661,-0.5488936920096729,-0.7197134779682468,-0.06480157375335693,0.3008266687393188,-0.4532017707824707,0.03651347756385803,-0.01500433683395386,0.00247490406036377,XArbitraryZVertical,-0.2909554632552326,-0.3075399230606087,0.2470624974662373,0.8716214973330527,-0.392348438501358,0.6591692566871643,-0.6415282487869263,0,0,0,-1,-1
2022-06-09T02:51:45.459+01:00,15092.974727625,-0.3656005859375,0.627471923828125,-0.64501953125,15092.954830625,0.3413384313923661,-0.5488936920096729,-0.7197134779682468,-0.06480157375335693,0.3008266687393188,-0.4532017707824707,0.03651347756385803,-0.01500433683395386,0.00247490406036377,XArbitraryZVertical,-0.2909554632552326,-0.3075399230606087,0.2470624974662373,0.8716214973330527,-0.392348438501358,0.6591692566871643,-0.6415282487869263,0,0,0,-1,-1
2022-06-09T02:51:45.474+01:00,15092.989620625,-0.355438232421875,0.638580322265625,-0.660736083984375,15092.974727625,0.3295828803892081,-0.5506336129910612,-0.7171389345535427,-0.2143231481313705,0.2984457910060883,-0.4492160677909851,0.02969622611999512,-0.03026270866394043,0.001022815704345703,XArbitraryZVertical,-0.2913832840091156,-0.3065149283462131,0.2419378867180004,0.873275665864126,-0.3943507373332977,0.6572310328483582,-0.6422887444496155,0,0,0,-1,-1
2022-06-09T02:51:45.491+01:00,15093.004543625,-0.35272216796875,0.644073486328125,-0.64288330078125,15092.994594625,0.3151882558965767,-0.5544811252199714,-0.7173612657952786,-0.3506274819374084,0.2668159604072571,-0.4565916955471039,0.04130387306213379,-0.01881831884384155,-0.02009367942810059,XArbitraryZVertical,-0.2932284901950162,-0.3060977172971749,0.2362330375309542,0.8743655429654896,-0.3967420756816864,0.6573985815048218,-0.6406424641609192,0,0,0,-1,-1
2022-06-09T02:51:45.505+01:00,15093.019466625,-0.3598480224609375,0.6549835205078125,-0.62542724609375,15093.014492625,0.3006885586820019,-0.5587366898671382,-0.7180525327334205,-0.2686708271503448,0.2689145505428314,-0.4391312301158905,0.04286998510360718,-0.01308298110961914,0.004529595375061035,XArbitraryZVertical,-0.2952626789802086,-0.3058406858853398,0.2305867250095013,0.8752777407691051,-0.3992237746715546,0.6579192876815796,-0.6385628581047058,0,0,0,-1,-1
2022-06-09T02:51:45.520+01:00,15093.034389625,-0.3707275390625,0.6292877197265625,-0.615753173828125,15093.014492625,0.3006885586820019,-0.5587366898671382,-0.7180525327334205,-0.2686708271503448,0.2689145505428314,-0.4391312301158905,0.04286998510360718,-0.01308298110961914,0.004529595375061035,XArbitraryZVertical,-0.2952626789802086,-0.3058406858853398,0.2305867250095013,0.8752777407691051,-0.3992237746715546,0.6579192876815796,-0.6385628581047058,0,0,0,-1,-1
2022-06-09T02:51:45.534+01:00,15093.049312625,-0.373931884765625,0.625091552734375,-0.623046875,15093.034389625,0.2885139805176116,-0.5614792716769123,-0.716406105628954,-0.06337384879589081,0.2575625479221344,-0.4068758189678192,0.0351557731628418,-0.01686233282089233,0.01876795291900635,XArbitraryZVertical,-0.2960652780822525,-0.3052122814398651,0.2254901707947445,0.8765529235710473,-0.4015498161315918,0.6566784977912903,-0.6383816003799438,0,0,0,-1,-1
2022-06-09T02:51:45.549+01:00,15093.064205625,-0.36737060546875,0.6102752685546875,-0.6126708984375,15093.054287625,0.2805180426512569,-0.5618806137211108,-0.7119406860272901,0.07949849963188171,0.222691684961319,-0.3542131781578064,0.02943238615989685,-0.02821284532546997,0.01764863729476929,XArbitraryZVertical,-0.295218233659526,-0.3041355738688545,0.2215741700630019,0.8782098309868565,-0.4033642411231995,0.6533042788505554,-0.6406955122947693,0,0,0,-1,-1
2022-06-09T02:51:45.564+01:00,15093.079128625,-0.3828582763671875,0.6136474609375,-0.6061553955078125,15093.074154625,0.274295346711357,-0.5616604833480785,-0.7070329924521488,0.04671794176101685,0.2098737359046936,-0.3089356124401093,0.03230631351470947,-0.04093837738037109,0.03483229875564575,XArbitraryZVertical,-0.2939647124111833,-0.3030505892856792,0.2182883064443235,0.8798267584190631,-0.4049259126186371,0.6495808362960815,-0.643490195274353,0,0,0,-1,-1
2022-06-09T02:51:45.579+01:00,15093.094051625,-0.3819122314453125,0.5758209228515625,-0.6101531982421875,15093.094051625,0.2683063833531768,-0.5617254662999082,-0.7039290794900398,-0.02532422542572021,0.1737537384033203,-0.2288436442613602,0.0214877724647522,-0.05815237760543823,0.03701293468475342,XArbitraryZVertical,-0.2934572188586081,-0.3021576686428115,0.2153311066592986,0.8810312186507556,-0.4060397446155548,0.6472178101539612,-0.6451672315597534,0,0,0,-1,-1
2022-06-09T02:51:45.594+01:00,15093.108974625,-0.368621826171875,0.5436553955078125,-0.6207275390625,15093.094051625,0.2683063833531768,-0.5617254662999082,-0.7039290794900398,-0.02532422542572021,0.1737537384033203,-0.2288436442613602,0.0214877724647522,-0.05815237760543823,0.03701293468475342,XArbitraryZVertical,-0.2934572188586081,-0.3021576686428115,0.2153311066592986,0.8810312186507556,-0.4060397446155548,0.6472178101539612,-0.6451672315597534,0,0,0,-1,-1
2022-06-09T02:51:45.609+01:00,15093.123897625,-0.3642120361328125,0.5514984130859375,-0.6253662109375,15093.113949625,0.2632380339839406,-0.5617019402276345,-0.703230232676418,-0.1403159499168396,0.1621284633874893,-0.1405430436134338,0.03764355182647705,-0.1030296087265015,0.02483183145523071,XArbitraryZVertical,-0.2939076689589525,-0.3013943624046409,0.2130193013910514,0.8817042933018722,-0.4062654078006744,0.6466849446296692,-0.6455594301223755,0,0,0,-1,-1
2022-06-09T02:51:45.623+01:00,15093.138790625,-0.3553009033203125,0.5769195556640625,-0.63580322265625,15093.133815625,0.2581311616871598,-0.5618706639682081,-0.7057652821863428,-0.2872613072395325,0.1491255909204483,-0.0563073456287384,0.04565158486366272,-0.08982443809509277,0.01571398973464966,XArbitraryZVertical,-0.2958076568785558,-0.3007441817754135,0.2110650821055511,0.8817609762638169,-0.4054996371269226,0.6486164927482605,-0.6441015601158142,0,0,0,-1,-1
2022-06-09T02:51:45.639+01:00,15093.153713625,-0.361114501953125,0.5986785888671875,-0.64678955078125,15093.133815625,0.2581311616871598,-0.5618706639682081,-0.7057652821863428,-0.2872613072395325,0.1491255909204483,-0.0563073456287384,0.04565158486366272,-0.08982443809509277,0.01571398973464966,XArbitraryZVertical,-0.2958076568785558,-0.3007441817754135,0.2110650821055511,0.8817609762638169,-0.4054996371269226,0.6486164927482605,-0.6441015601158142,0,0,0,-1,-1
2022-06-09T02:51:45.654+01:00,15093.168636625,-0.3729248046875,0.6065826416015625,-0.632293701171875,15093.153713625,0.2529323994944797,-0.5625779032225779,-0.7111559030853772,-0.3756340146064758,0.1257562339305878,0.01475580129772425,0.04568582773208618,-0.06317144632339478,0.0007261037826538086,XArbitraryZVertical,-0.2989565258694289,-0.3003351181706795,0.2094600880857833,0.8812209167375431,-0.4040842652320862,0.6527099013328552,-0.6408476233482361,0,0,0,-1,-1
2022-06-09T02:51:45.669+01:00,15093.183559625,-0.384918212890625,0.642303466796875,-0.63275146484375,15093.173610625,0.2484465371475174,-0.5633190893405047,-0.7182519745860974,-0.3934980630874634,0.09199438989162445,0.0891893059015274,0.02915090322494507,-0.05148696899414062,0.004322052001953125,XArbitraryZVertical,-0.3027635428797575,-0.3000438610592027,0.2083631079697273,0.8802799402621986,-0.4020756781101227,0.6580694913864136,-0.6366158127784729,0,0,0,-1,-1
2022-06-09T02:51:45.683+01:00,15093.198452625,-0.3880157470703125,0.66168212890625,-0.6215362548828125,15093.193508625,0.2452889610331527,-0.5638124241051052,-0.7258769441396724,-0.3774541616439819,0.07089126855134964,0.1107790917158127,0.0146867036819458,-0.004779815673828125,0.001557767391204834,XArbitraryZVertical,-0.3066318310457037,-0.299830004799455,0.2078743932900547,0.879128590891419,-0.3996964395046234,0.6637915968894958,-0.6321578025817871,0,0,0,-1,-1
2022-06-09T02:51:45.699+01:00,15093.213375625,-0.3935089111328125,0.682098388671875,-0.6170806884765625,15093.193508625,0.2452889610331527,-0.5638124241051052,-0.7258769441396724,-0.3774541616439819,0.07089126855134964,0.1107790917158127,0.0146867036819458,-0.004779815673828125,0.001557767391204834,XArbitraryZVertical,-0.3066318310457037,-0.299830004799455,0.2078743932900547,0.879128590891419,-0.3996964395046234,0.6637915968894958,-0.6321578025817871,0,0,0,-1,-1
2022-06-09T02:51:45.713+01:00,15093.228298625,-0.39837646484375,0.6993560791015625,-0.6428070068359375,15093.213375625,0.24364825445986,-0.563525031373828,-0.7325859985434467,-0.2632864415645599,0.06702962517738342,0.151811957359314,0.005174398422241211,0.002821028232574463,0.0117790699005127,XArbitraryZVertical,-0.3099359980671866,-0.2994877267830758,0.2078343706357074,0.8780953808920356,-0.3971268832683563,0.6687943935394287,-0.6284935474395752,0,0,0,-1,-1
2022-06-09T02:51:45.729+01:00,15093.243221625,-0.385009765625,0.73431396484375,-0.6705169677734375,15093.233272625,0.2443505395414765,-0.561485316072582,-0.7375746694728746,-0.1433281600475311,0.08925731480121613,0.153899684548378,-0.00431370735168457,0.02686113119125366,-0.01633667945861816,XArbitraryZVertical,-0.3122931123206343,-0.2987269822752046,0.208361737157709,0.8773942369250535,-0.3940627872943878,0.6724948883056641,-0.6264703869819641,0,0,0,-1,-1
2022-06-09T02:51:45.743+01:00,15093.258144625,-0.3901519775390625,0.7403411865234375,-0.687957763671875,15093.253170625,0.2464698889077399,-0.5583444762463431,-0.7406488249216244,-0.04581571742892265,0.09152987599372864,0.1583975404500961,0.006154119968414307,0.06824445724487305,-0.04925286769866943,XArbitraryZVertical,-0.3136908670699544,-0.2976974192966622,0.2091275851004344,0.8770631845834289,-0.3909960687160492,0.6747668981552124,-0.6259485483169556,0,0,0,-1,-1
2022-06-09T02:51:45.758+01:00,15093.273037625,-0.390838623046875,0.709381103515625,-0.6807708740234375,15093.273037625,0.2496251654715901,-0.5543644044382465,-0.7425675105771754,-0.03327334299683571,0.08785917609930038,0.1318232119083405,-0.004728198051452637,0.04174423217773438,-0.05751633644104004,XArbitraryZVertical,-0.314504286665193,-0.2964592934432615,0.2100884250702589,0.8769616252715834,-0.3878194391727448,0.6761817336082458,-0.6263979077339172,0,0,0,-1,-1
2022-06-09T02:51:45.773+01:00,15093.287960625,-0.394073486328125,0.6775970458984375,-0.6709442138671875,15093.273037625,0.2496251654715901,-0.5543644044382465,-0.7425675105771754,-0.03327334299683571,0.08785917609930038,0.1318232119083405,-0.004728198051452637,0.04174423217773438,-0.05751633644104004,XArbitraryZVertical,-0.314504286665193,-0.2964592934432615,0.2100884250702589,0.8769616252715834,-0.3878194391727448,0.6761817336082458,-0.6263979077339172,0,0,0,-1,-1
2022-06-09T02:51:45.788+01:00,15093.302883625,-0.3878021240234375,0.65887451171875,-0.6688690185546875,15093.292934625,0.2515955424546696,-0.5513156121128521,-0.7442783328269725,-0.03284889832139015,0.09346966445446014,0.09970168024301529,-0.008772164583206177,0.0001557469367980957,-0.04435324668884277,XArbitraryZVertical,-0.315304740115349,-0.2954444737842281,0.2106507900894699,0.8768817133633268,-0.3853013217449188,0.6774411201477051,-0.6265909671783447,0,0,0,-1,-1
2022-06-09T02:51:45.803+01:00,15093.317806625,-0.386871337890625,0.6799468994140625,-0.6550140380859375,15093.312832625,0.253613730815483,-0.5482236904146284,-0.745640147255439,0.0179070457816124,0.07985889911651611,0.09168681502342224,-0.001899898052215576,-0.01851505041122437,-0.04038232564926147,XArbitraryZVertical,-0.3159472206372013,-0.2944175280328292,0.2111884367659541,0.8768665220306224,-0.3828809559345245,0.6784422397613525,-0.626991331577301,0,0,0,-1,-1
2022-06-09T02:51:45.818+01:00,15093.332729625,-0.3909912109375,0.71881103515625,-0.6764068603515625,15093.312832625,0.253613730815483,-0.5482236904146284,-0.745640147255439,0.0179070457816124,0.07985889911651611,0.09168681502342224,-0.001899898052215576,-0.01851505041122437,-0.04038232564926147,XArbitraryZVertical,-0.3159472206372013,-0.2944175280328292,0.2111884367659541,0.8768665220306224,-0.3828809559345245,0.6784422397613525,-0.626991331577301,0,0,0,-1,-1
2022-06-09T02:51:45.833+01:00,15093.347622625,-0.3989715576171875,0.68206787109375,-0.668792724609375,15093.332729625,0.257501258003331,-0.5431215881679502,-0.7454343372126696,0.1615432053804398,0.1044620126485825,0.06616226583719254,-0.01078423857688904,0.03510302305221558,-0.03593701124191284,XArbitraryZVertical,-0.3158235541043029,-0.2927923546236568,0.212066348125881,0.8772433286206766,-0.3797491788864136,0.6782910227775574,-0.6290562152862549,0,0,0,-1,-1
2022-06-09T02:51:45.848+01:00,15093.362545625,-0.39080810546875,0.6800994873046875,-0.6949005126953125,15093.352596625,0.262708995111506,-0.5370675482436524,-0.7422128281909518,0.270480215549469,0.1022804379463196,0.06771846860647202,-0.02192160487174988,0.006147384643554688,-0.03557479381561279,XArbitraryZVertical,-0.3142527552458979,-0.2909230842995167,0.2130743766182259,0.8781845896375494,-0.3770499229431152,0.6759203672409058,-0.6332179307937622,0,0,0,-1,-1
2022-06-09T02:51:45.862+01:00,15093.377468625,-0.394989013671875,0.6688079833984375,-0.675994873046875,15093.372493625,0.2672075861165786,-0.5321560560129729,-0.7380787282797022,0.2295804023742676,0.08207713812589645,0.02420315518975258,-0.01323032379150391,0.004759609699249268,-0.05162227153778076,XArbitraryZVertical,-0.3122558223367028,-0.2894200426342714,0.2138722103732797,0.8791990756983279,-0.3753499686717987,0.6728678941726685,-0.637464702129364,0,0,0,-1,-1
2022-06-09T02:51:45.878+01:00,15093.392391625,-0.3952789306640625,0.7034454345703125,-0.6931610107421875,15093.392391625,0.2713024175849437,-0.5281114563582434,-0.7336081312175212,0.2901972234249115,0.05186916142702103,0.03375802561640739,-0.02223420143127441,0.01931923627853394,-0.04069679975509644,XArbitraryZVertical,-0.3100748290691649,-0.2882166769417003,0.2146067316959907,0.8801867259931729,-0.3742806911468506,0.6695539951324463,-0.6415694952011108,0,0,0,-1,-1
2022-06-09T02:51:45.893+01:00,15093.407314625,-0.4004058837890625,0.7212982177734375,-0.7012176513671875,15093.392391625,0.2713024175849437,-0.5281114563582434,-0.7336081312175212,0.2901972234249115,0.05186916142702103,0.03375802561640739,-0.02223420143127441,0.01931923627853394,-0.04069679975509644,XArbitraryZVertical,-0.3100748290691649,-0.2882166769417003,0.2146067316959907,0.8801867259931729,-0.3742806911468506,0.6695539951324463,-0.6415694952011108,0,0,0,-1,-1
2022-06-09T02:51:45.908+01:00,15093.422207625,-0.3998870849609375,0.6939697265625,-0.6810455322265625,15093.412258625,0.2765235374890281,-0.5236173941644964,-0.7279116472914486,0.3795432150363922,0.05736406520009041,0.02773893997073174,-0.02711114287376404,0.05598610639572144,-0.05468004941940308,XArbitraryZVertical,-0.3072266366639286,-0.286954671203362,0.2156617168514137,0.8813391422570082,-0.3732947111129761,0.6653119921684265,-0.6465376019477844,0,0,0,-1,-1
2022-06-09T02:51:45.922+01:00,15093.437130625,-0.4055633544921875,0.6230926513671875,-0.6650238037109375,15093.432155625,0.280403631992121,-0.5204723159609626,-0.7233248271678976,0.1620921045541763,0.01411474216729403,-0.009608527645468712,-0.02905184030532837,0.009032964706420898,-0.0228990912437439,XArbitraryZVertical,-0.3049299337743351,-0.2860823619541895,0.2164522467566743,0.8822261236250118,-0.372773140668869,0.6618806719779968,-0.6503492593765259,0,0,0,-1,-1
2022-06-09T02:51:45.937+01:00,15093.452053625,-0.389678955078125,0.63818359375,-0.660308837890625,15093.452053625,0.2812068436699631,-0.5200575826367326,-0.720836603916769,0.08546829223632812,-0.02244264632463455,-0.04251070320606232,-0.02189722657203674,-0.03605109453201294,-0.01068198680877686,XArbitraryZVertical,-0.3037304358662504,-0.2859760813743231,0.2165065037411612,0.882661034889323,-0.3733206689357758,0.6600133776664734,-0.6519309878349304,0,0,0,-1,-1
2022-06-09T02:51:45.952+01:00,15093.466976625,-0.377349853515625,0.6629791259765625,-0.6533966064453125,15093.452053625,0.2812068436699631,-0.5200575826367326,-0.720836603916769,0.08546829223632812,-0.02244264632463455,-0.04251070320606232,-0.02189722657203674,-0.03605109453201294,-0.01068198680877686,XArbitraryZVertical,-0.3037304358662504,-0.2859760813743231,0.2165065037411612,0.882661034889323,-0.3733206689357758,0.6600133776664734,-0.6519309878349304,0,0,0,-1,-1
2022-06-09T02:51:45.967+01:00,15093.481868625,-0.3744659423828125,0.6618804931640625,-0.6736907958984375,15093.471950625,0.2818373592430191,-0.5199989094278799,-0.7180488060798428,0.1908268928527832,-0.0001699803397059441,-0.02733441255986691,-0.0031546950340271,0.005062580108642578,0.0001504421234130859,XArbitraryZVertical,-0.3023805931156761,-0.285993767996177,0.2165104063636119,0.8831175962525704,-0.3741951584815979,0.6579164862632751,-0.6535471081733704,0,0,0,-1,-1
2022-06-09T02:51:45.982+01:00,15093.496792625,-0.3746337890625,0.67413330078125,-0.6939697265625,15093.491817625,0.2842183036109414,-0.5185541968617792,-0.7140539826456689,0.3033122718334198,-0.02265685424208641,-0.0328630805015564,-7.241964340209961e-06,0.009876728057861328,-0.02608484029769897,XArbitraryZVertical,-0.3003815876669912,-0.2856372958231743,0.2169643978746899,0.8838034122656243,-0.3745502233505249,0.6549028158187866,-0.6563645005226135,0,0,0,-1,-1
2022-06-09T02:51:45.997+01:00,15093.511715625,-0.3819580078125,0.690765380859375,-0.6974945068359375,15093.511715625,0.2881737113724996,-0.5167713194397822,-0.707662846290484,0.4057661890983582,-0.03155044838786125,-0.01682890765368938,-0.00529751181602478,0.04241472482681274,-0.03802788257598877,XArbitraryZVertical,-0.2971037439645202,-0.285308477251535,0.2178412737746144,0.8848014718539108,-0.3754397928714752,0.6500595808029175,-0.6606568694114685,0,0,0,-1,-1
2022-06-09T02:51:46.012+01:00,15093.526638625,-0.3787384033203125,0.667877197265625,-0.7053680419921875,15093.511715625,0.2881737113724996,-0.5167713194397822,-0.707662846290484,0.4057661890983582,-0.03155044838786125,-0.01682890765368938,-0.00529751181602478,0.04241472482681274,-0.03802788257598877,XArbitraryZVertical,-0.2971037439645202,-0.285308477251535,0.2178412737746144,0.8848014718539108,-0.3754397928714752,0.6500595808029175,-0.6606568694114685,0,0,0,-1,-1
2022-06-09T02:51:46.026+01:00,15093.541561625,-0.3857269287109375,0.622222900390625,-0.6963958740234375,15093.531612625,0.2919398785570515,-0.5155511743247765,-0.7003088697044916,0.3279361426830292,-0.05477472394704819,-0.05038844794034958,-0.00175824761390686,0.02342319488525391,-0.04011237621307373,XArbitraryZVertical,-0.2933508156580146,-0.2851621638982019,0.2186338516900805,0.8859046248438093,-0.3769801259040833,0.6444538831710815,-0.6652556657791138,0,0,0,-1,-1
2022-06-09T02:51:46.041+01:00,15093.556453625,-0.381439208984375,0.5861663818359375,-0.6792144775390625,15093.551479625,0.2940012825029231,-0.5152562955563967,-0.6954825789999443,0.1471040993928909,-0.05154643952846527,-0.05118517205119133,-0.007857233285903931,-0.02994674444198608,-0.02227258682250977,XArbitraryZVertical,-0.2908890841920466,-0.2852205140542773,0.2190489083788214,0.8865948484587888,-0.3783122003078461,0.6407560110092163,-0.66806560754776,0,0,0,-1,-1
2022-06-09T02:51:46.057+01:00,15093.571376625,-0.37078857421875,0.5781097412109375,-0.67535400390625,15093.571376625,0.2938163730716822,-0.516410064725646,-0.6943123967948744,0.04105106741189957,-0.06722532957792282,-0.05934808030724525,0.006100654602050781,-0.06434154510498047,-0.009881436824798584,XArbitraryZVertical,-0.2902554933919369,-0.2856775425279859,0.2190239959754034,0.8866614239309509,-0.3794526755809784,0.6398571729660034,-0.6682801842689514,0,0,0,-1,-1
2022-06-09T02:51:46.071+01:00,15093.586300625,-0.364532470703125,0.6188201904296875,-0.676605224609375,15093.571376625,0.2938163730716822,-0.516410064725646,-0.6943123967948744,0.04105106741189957,-0.06722532957792282,-0.05934808030724525,0.006100654602050781,-0.06434154510498047,-0.009881436824798584,XArbitraryZVertical,-0.2902554933919369,-0.2856775425279859,0.2190239959754034,0.8866614239309509,-0.3794526755809784,0.6398571729660034,-0.6682801842689514,0,0,0,-1,-1
2022-06-09T02:51:46.086+01:00,15093.601223625,-0.3672027587890625,0.6338348388671875,-0.679229736328125,15093.591274625,0.2944434651655852,-0.5169077267163908,-0.6928327142665462,0.1499612331390381,-0.06857599318027496,-0.04658041149377823,0.01572024822235107,-0.01989918947219849,-0.007691562175750732,XArbitraryZVertical,-0.2894364656717587,-0.285953990419352,0.2192338897691503,0.886788284602857,-0.3802527189254761,0.6387193202972412,-0.668913722038269,0,0,0,-1,-1
2022-06-09T02:51:46.101+01:00,15093.616146625,-0.3790740966796875,0.6312255859375,-0.6885528564453125,15093.611171625,0.2962423139419001,-0.5167529456346157,-0.6897383090506808,0.2023047208786011,-0.08207425475120544,-0.03832299634814262,0.008702546358108521,-0.008131086826324463,-0.009335577487945557,XArbitraryZVertical,-0.2877844795234428,-0.2860704172605835,0.2197160024343748,0.8871688219285583,-0.381123811006546,0.6363353133201599,-0.6706876158714294,0,0,0,-1,-1
2022-06-09T02:51:46.116+01:00,15093.631038625,-0.3817596435546875,0.618804931640625,-0.690277099609375,15093.611171625,0.2962423139419001,-0.5167529456346157,-0.6897383090506808,0.2023047208786011,-0.08207425475120544,-0.03832299634814262,0.008702546358108521,-0.008131086826324463,-0.009335577487945557,XArbitraryZVertical,-0.2877844795234428,-0.2860704172605835,0.2197160024343748,0.8871688219285583,-0.381123811006546,0.6363353133201599,-0.6706876158714294,0,0,0,-1,-1
2022-06-09T02:51:46.131+01:00,15093.645961625,-0.37908935546875,0.5961456298828125,-0.66595458984375,15093.631038625,0.2981933598469457,-0.5171566077150871,-0.6853401514464911,0.164987787604332,-0.1077682226896286,-0.02458150498569012,0.002571314573287964,-0.003389358520507812,-0.02325284481048584,XArbitraryZVertical,-0.2854532029708142,-0.2864200889394326,0.2202222281795925,0.8876836010801715,-0.3827745616436005,0.632936418056488,-0.6729599833488464,0,0,0,-1,-1
2022-06-09T02:51:46.146+01:00,15093.660885625,-0.365631103515625,0.61224365234375,-0.655792236328125,15093.650936625,0.2999851499412978,-0.5181996511742817,-0.6810120005048893,0.1254251897335052,-0.1422407478094101,-0.006417356431484222,0.005740195512771606,-0.03343403339385986,0.008979201316833496,XArbitraryZVertical,-0.2831045732704393,-0.2870276340136077,0.2207542651035929,0.8881072658935254,-0.384829580783844,0.6295796036720276,-0.6749338507652283,0,0,0,-1,-1
2022-06-09T02:51:46.161+01:00,15093.675808625,-0.35931396484375,0.61163330078125,-0.666595458984375,15093.670833625,0.3021283678357186,-0.5188923284056641,-0.6783539990506153,0.1253658384084702,-0.1303967237472534,0.009437392465770245,0.02295106649398804,-0.01427686214447021,0.01953214406967163,XArbitraryZVertical,-0.2815056674209762,-0.2875684551641556,0.2215504391416443,0.888242245519645,-0.3861255049705505,0.6275122761726379,-0.6761178970336914,0,0,0,-1,-1
2022-06-09T02:51:46.176+01:00,15093.690700625,-0.3635406494140625,0.6173553466796875,-0.673553466796875,15093.670833625,0.3021283678357186,-0.5188923284056641,-0.6783539990506153,0.1253658384084702,-0.1303967237472534,0.009437392465770245,0.02295106649398804,-0.01427686214447021,0.01953214406967163,XArbitraryZVertical,-0.2815056674209762,-0.2875684551641556,0.2215504391416443,0.888242245519645,-0.3861255049705505,0.6275122761726379,-0.6761178970336914,0,0,0,-1,-1
2022-06-09T02:51:46.190+01:00,15093.705623625,-0.3733062744140625,0.627166748046875,-0.679595947265625,15093.690700625,0.3053783721036178,-0.5182469907605899,-0.677487008287194,0.09871860593557358,-0.1381656676530838,0.02971645072102547,0.02638506889343262,-0.01268619298934937,0.002507567405700684,XArbitraryZVertical,-0.2807137455504119,-0.2877154384554358,0.2228205275220208,0.8881275020936846,-0.3859584033489227,0.6268370151519775,-0.6768392324447632,0,0,0,-1,-1
2022-06-09T02:51:46.206+01:00,15093.720546625,-0.3717041015625,0.6192779541015625,-0.6647796630859375,15093.710598625,0.3076317731430817,-0.5190002133865057,-0.6763193391623825,0.04950347542762756,-0.1503551006317139,0.02782499603927135,0.01352468132972717,0.001239895820617676,-0.002412497997283936,XArbitraryZVertical,-0.2797714553560421,-0.2883334650749964,0.2238156428778717,0.8879742743735513,-0.3868309557437897,0.6259267926216125,-0.6771835088729858,0,0,0,-1,-1
2022-06-09T02:51:46.221+01:00,15093.735470625,-0.374969482421875,0.6184539794921875,-0.6686248779296875,15093.730495625,0.3090878034785069,-0.5208195939344449,-0.6749206359020096,0.05689975991845131,-0.142227366566658,0.03893568739295006,0.01627472043037415,-0.01094383001327515,0.01463961601257324,XArbitraryZVertical,-0.2787180009188527,-0.2893054147144792,0.2245828842861391,0.8877956645658478,-0.3884975910186768,0.6248353719711304,-0.677237331867218,0,0,0,-1,-1
2022-06-09T02:51:46.235+01:00,15093.750387375,-0.3778228759765625,0.6321868896484375,-0.6806793212890625,15093.730495625,0.3090878034785069,-0.5208195939344449,-0.6749206359020096,0.05689975991845131,-0.142227366566658,0.03893568739295006,0.01627472043037415,-0.01094383001327515,0.01463961601257324,XArbitraryZVertical,-0.2787180009188527,-0.2893054147144792,0.2245828842861391,0.8877956645658478,-0.3884975910186768,0.6248353719711304,-0.677237331867218,0,0,0,-1,-1
2022-06-09T02:51:46.250+01:00,15093.765279375,-0.386993408203125,0.5945281982421875,-0.6735382080078125,15093.750387375,0.3119388620293659,-0.5210738702299446,-0.6742036395590263,0.1150157526135445,-0.1308773905038834,0.0560251921415329,0.01064258813858032,0.006965339183807373,-0.0003296136856079102,XArbitraryZVertical,-0.2779489297838308,-0.2897946904627477,0.2258153423053019,0.887564525690511,-0.3888927102088928,0.6242753863334656,-0.6775268316268921,0,0,0,-1,-1
2022-06-09T02:51:46.265+01:00,15093.780202375,-0.391632080078125,0.5821685791015625,-0.6748504638671875,15093.770254375,0.3160604990177295,-0.5199379864185282,-0.6734905874737123,0.07647470384836197,-0.1350357979536057,0.0847054198384285,0.001350492238998413,-0.0291900634765625,0.004816055297851562,XArbitraryZVertical,-0.2771544827064478,-0.2898417635597006,0.2274189334829498,0.8873881132382881,-0.3883439302444458,0.6237182021141052,-0.6783542633056641,0,0,0,-1,-1
2022-06-09T02:51:46.281+01:00,15093.795125375,-0.382476806640625,0.595855712890625,-0.6732025146484375,15093.790151375,0.3192395197508233,-0.5201085103458167,-0.6741671088917791,0.008173746056854725,-0.1494455486536026,0.112305112183094,-0.0004067420959472656,-0.03992688655853271,0.004246234893798828,XArbitraryZVertical,-0.2769830567627743,-0.2903781785277004,0.2289165811503648,0.8868811366672845,-0.3882498145103455,0.6242468357086182,-0.6779217720031738,0,0,0,-1,-1
2022-06-09T02:51:46.295+01:00,15093.810048375,-0.3882904052734375,0.6146087646484375,-0.68731689453125,15093.790151375,0.3192395197508233,-0.5201085103458167,-0.6741671088917791,0.008173746056854725,-0.1494455486536026,0.112305112183094,-0.0004067420959472656,-0.03992688655853271,0.004246234893798828,XArbitraryZVertical,-0.2769830567627743,-0.2903781785277004,0.2289165811503648,0.8868811366672845,-0.3882498145103455,0.6242468357086182,-0.6779217720031738,0,0,0,-1,-1
2022-06-09T02:51:46.310+01:00,15093.824972375,-0.3907928466796875,0.62554931640625,-0.6945343017578125,15093.810048375,0.3229396688260845,-0.5204389050380648,-0.6750889651096478,0.06395141035318375,-0.1459156721830368,0.1440899521112442,0.0041084885597229,-0.01550030708312988,-0.004392504692077637,XArbitraryZVertical,-0.2768284193517981,-0.2910653820776167,0.2306893953997364,0.8862445861890306,-0.3881874680519104,0.6249667406082153,-0.6772939562797546,0,0,0,-1,-1
2022-06-09T02:51:46.325+01:00,15093.839864375,-0.4002227783203125,0.640777587890625,-0.690399169921875,15093.829915375,0.3277582115769795,-0.5200043633198707,-0.6756115837305265,0.06315948069095612,-0.1547894775867462,0.1583159416913986,-0.003062069416046143,0.0001745820045471191,-0.01735538244247437,XArbitraryZVertical,-0.2764156556885433,-0.2915559907846453,0.2328128403118931,0.885656620339148,-0.387730747461319,0.6253746747970581,-0.6771789789199829,0,0,0,-1,-1
2022-06-09T02:51:46.340+01:00,15093.854787375,-0.399139404296875,0.6308135986328125,-0.6898956298828125,15093.849813375,0.331672240432161,-0.5205559507873861,-0.6758553999683314,-0.00262399623170495,-0.1705209463834763,0.1518676578998566,-0.01431536674499512,0.01248133182525635,-0.01297140121459961,XArbitraryZVertical,-0.2758911844106957,-0.2923485926625896,0.2346444501026973,0.8850753173610001,-0.3880283832550049,0.6255649328231812,-0.6768327355384827,0,0,0,-1,-1
2022-06-09T02:51:46.355+01:00,15093.869710375,-0.398834228515625,0.6412811279296875,-0.6681671142578125,15093.849813375,0.331672240432161,-0.5205559507873861,-0.6758553999683314,-0.00262399623170495,-0.1705209463834763,0.1518676578998566,-0.01431536674499512,0.01248133182525635,-0.01297140121459961,XArbitraryZVertical,-0.2758911844106957,-0.2923485926625896,0.2346444501026973,0.8850753173610001,-0.3880283832550049,0.6255649328231812,-0.6768327355384827,0,0,0,-1,-1
2022-06-09T02:51:46.370+01:00,15093.884633375,-0.4084625244140625,0.6420440673828125,-0.6699981689453125,15093.869710375,0.3349049936231362,-0.5222416679040631,-0.674722216154608,0.01620384305715561,-0.1741524040699005,0.1527445316314697,-0.006748586893081665,0.01309108734130859,-0.001400589942932129,XArbitraryZVertical,-0.2747018727728356,-0.2935014182381056,0.2362009506944621,0.8846495873867376,-0.3895221352577209,0.6246803998947144,-0.6767916083335876,0,0,0,-1,-1
2022-06-09T02:51:46.385+01:00,15093.899526375,-0.40460205078125,0.6259918212890625,-0.6869354248046875,15093.889608375,0.3391703913382734,-0.5224716152729286,-0.6742179375999328,0.06052414327859879,-0.1529460400342941,0.1434625089168549,-0.01862764358520508,0.01775741577148438,0.006976664066314697,XArbitraryZVertical,-0.2738177248766723,-0.2941707147449266,0.2380716584293042,0.884199780190316,-0.3898348808288574,0.6242865920066833,-0.676974892616272,0,0,0,-1,-1
2022-06-09T02:51:46.400+01:00,15093.914449375,-0.4179534912109375,0.62518310546875,-0.6768646240234375,15093.909475375,0.3434555631700548,-0.5220375742767386,-0.673792670765391,0.06159143149852753,-0.1161884367465973,0.1393532752990723,-0.01701915264129639,-0.001258492469787598,-0.006570696830749512,XArbitraryZVertical,-0.2730447617025392,-0.2945496898232912,0.2398668862256385,0.8838273518036416,-0.3896733522415161,0.6239542961120605,-0.6773740649223328,0,0,0,-1,-1
2022-06-09T02:51:46.415+01:00,15093.929372375,-0.4199066162109375,0.643157958984375,-0.6797332763671875,15093.929372375,0.3469441211276755,-0.5223278521904999,-0.6742475955522657,0.05340440571308136,-0.1124095842242241,0.1125408560037613,-0.03205513954162598,0.01553696393966675,7.390975952148438e-05,XArbitraryZVertical,-0.2727031513926508,-0.2951703755496622,0.2414897556347088,0.8832836847232017,-0.389728307723999,0.6243097186088562,-0.6770148873329163,0,0,0,-1,-1
2022-06-09T02:51:46.429+01:00,15093.944295375,-0.4052581787109375,0.638458251953125,-0.683685302734375,15093.929372375,0.3469441211276755,-0.5223278521904999,-0.6742475955522657,0.05340440571308136,-0.1124095842242241,0.1125408560037613,-0.03205513954162598,0.01553696393966675,7.390975952148438e-05,XArbitraryZVertical,-0.2727031513926508,-0.2951703755496622,0.2414897556347088,0.8832836847232017,-0.389728307723999,0.6243097186088562,-0.6770148873329163,0,0,0,-1,-1
2022-06-09T02:51:46.444+01:00,15093.959218375,-0.4074554443359375,0.6332855224609375,-0.6722869873046875,15093.949270375,0.3497771579945429,-0.5229072075344497,-0.6743181039269481,0.05799911543726921,-0.1046164333820343,0.09993401914834976,-0.01515969634056091,0.01409333944320679,-0.006934463977813721,XArbitraryZVertical,-0.2722466107217529,-0.2958147530086817,0.2428260789564156,0.8828424641654732,-0.3900984823703766,0.6243647933006287,-0.6767508387565613,0,0,0,-1,-1
2022-06-09T02:51:46.459+01:00,15093.974111375,-0.417755126953125,0.626190185546875,-0.6764678955078125,15093.969137375,0.3521142131508734,-0.5239358572884329,-0.6748254893291104,0.07358699291944504,-0.08274096250534058,0.0913388580083847,-0.02151927351951599,0.002252936363220215,0.003421604633331299,XArbitraryZVertical,-0.2720067723849693,-0.2966056766931663,0.2440442136961205,0.8823149199887756,-0.3906358778476715,0.6247610449790955,-0.6760748028755188,0,0,0,-1,-1
2022-06-09T02:51:46.474+01:00,15093.989034375,-0.410186767578125,0.6161651611328125,-0.6802520751953125,15093.969137375,0.3521142131508734,-0.5239358572884329,-0.6748254893291104,0.07358699291944504,-0.08274096250534058,0.0913388580083847,-0.02151927351951599,0.002252936363220215,0.003421604633331299,XArbitraryZVertical,-0.2720067723849693,-0.2966056766931663,0.2440442136961205,0.8823149199887756,-0.3906358778476715,0.6247610449790955,-0.6760748028755188,0,0,0,-1,-1
2022-06-09T02:51:46.489+01:00,15094.003957375,-0.413604736328125,0.6170654296875,-0.683380126953125,15093.989034375,0.3549000434455938,-0.5238924774207062,-0.6741572095359217,0.07052584737539291,-0.06540277600288391,0.092342808842659,-0.02353709936141968,-0.001909554004669189,-0.004378795623779297,XArbitraryZVertical,-0.2712938451820936,-0.2969395521363246,0.2452055437168086,0.8821001330024948,-0.3908153176307678,0.6242391467094421,-0.6764531135559082,0,0,0,-1,-1
2022-06-09T02:51:46.504+01:00,15094.018880375,-0.4119873046875,0.641571044921875,-0.6927032470703125,15094.008932375,0.3570179195803548,-0.5245751244804107,-0.6737197069266674,0.07800780236721039,-0.05139393359422684,0.09379330277442932,-0.02219092845916748,-0.006831943988800049,-0.006957650184631348,XArbitraryZVertical,-0.2706956617608482,-0.2975106636910402,0.2461916627969084,0.8818168308560224,-0.3914137780666351,0.6238972544670105,-0.6764225363731384,0,0,0,-1,-1
2022-06-09T02:51:46.519+01:00,15094.033803375,-0.4095458984375,0.629638671875,-0.6781768798828125,15094.028829375,0.3595677312404886,-0.5243451531901159,-0.6735172204487424,0.07001876085996628,-0.04015693068504333,0.09381518512964249,-0.02049803733825684,0.01200300455093384,-0.01344168186187744,XArbitraryZVertical,-0.2702522432246209,-0.2977462446306386,0.2472660696652696,0.8815725650755785,-0.3913214206695557,0.6237390041351318,-0.6766217947006226,0,0,0,-1,-1
2022-06-09T02:51:46.534+01:00,15094.048696375,-0.4088287353515625,0.626312255859375,-0.663909912109375,15094.048696375,0.3614717328227186,-0.5243359545735127,-0.6741083938756367,-0.006787093821913004,-0.03257280960679054,0.08860571682453156,-0.01934611797332764,0.004049062728881836,0.01100766658782959,XArbitraryZVertical,-0.2702393902894163,-0.2980228087266649,0.2481580841675663,0.8812324626742115,-0.3911305665969849,0.6242009997367859,-0.6763061285018921,0,0,0,-1,-1
2022-06-09T02:51:46.549+01:00,15094.063619375,-0.4027252197265625,0.6311187744140625,-0.66754150390625,15094.048696375,0.3614717328227186,-0.5243359545735127,-0.6741083938756367,-0.006787093821913004,-0.03257280960679054,0.08860571682453156,-0.01934611797332764,0.004049062728881836,0.01100766658782959,XArbitraryZVertical,-0.2702393902894163,-0.2980228087266649,0.2481580841675663,0.8812324626742115,-0.3911305665969849,0.6242009997367859,-0.6763061285018921,0,0,0,-1,-1
2022-06-09T02:51:46.564+01:00,15094.078542375,-0.3982696533203125,0.6334991455078125,-0.672515869140625,15094.068593375,0.3629437321177048,-0.5245633667517106,-0.6743735335083808,0.03582905232906342,-0.004138888791203499,0.09872045367956161,-0.01152372360229492,0.006710529327392578,0.008532345294952393,XArbitraryZVertical,-0.2701125882881185,-0.2983324587127031,0.2488616006766395,0.8809680511180492,-0.3912014365196228,0.6244081258773804,-0.6760738492012024,0,0,0,-1,-1
2022-06-09T02:51:46.578+01:00,15094.093465375,-0.409088134765625,0.614593505859375,-0.6749114990234375,15094.088491375,0.3650170132944341,-0.5237347912126005,-0.6735734865988517,0.05017104372382164,0.01024084910750389,0.08781197667121887,-0.009865999221801758,0.006725311279296875,0.002361118793487549,XArbitraryZVertical,-0.2695418271982573,-0.2982149164584717,0.2495900043701328,0.8809765680808442,-0.3908908069133759,0.6237829923629761,-0.6768301129341125,0,0,0,-1,-1
2022-06-09T02:51:46.594+01:00,15094.108358375,-0.414642333984375,0.61651611328125,-0.666046142578125,15094.108358375,0.3669657744054924,-0.5225558772916842,-0.6734541336547231,0.01796703226864338,0.03937441110610962,0.0818222239613533,-0.02399370074272156,-0.01744282245635986,0.01158356666564941,XArbitraryZVertical,-0.2693442578848205,-0.2979532310837371,0.2502786510038427,0.8809303012411114,-0.3901298344135284,0.6236897110939026,-0.6773551106452942,0,0,0,-1,-1
2022-06-09T02:51:46.608+01:00,15094.123281375,-0.4084014892578125,0.6248931884765625,-0.6728973388671875,15094.108358375,0.3669657744054924,-0.5225558772916842,-0.6734541336547231,0.01796703226864338,0.03937441110610962,0.0818222239613533,-0.02399370074272156,-0.01744282245635986,0.01158356666564941,XArbitraryZVertical,-0.2693442578848205,-0.2979532310837371,0.2502786510038427,0.8809303012411114,-0.3901298344135284,0.6236897110939026,-0.6773551106452942,0,0,0,-1,-1
2022-06-09T02:51:46.623+01:00,15094.138204375,-0.4072723388671875,0.622100830078125,-0.6729888916015625,15094.128255375,0.3675490179917114,-0.5222446258971238,-0.6742409916437747,-0.006385134998708963,0.04788531363010406,0.06724145263433456,-0.01872742176055908,0.000588536262512207,0.004153549671173096,XArbitraryZVertical,-0.2696551639062115,-0.2979272282962246,0.2505649248980456,0.8807625628934557,-0.389674037694931,0.6243045926094055,-0.6770509481430054,0,0,0,-1,-1
2022-06-09T02:51:46.638+01:00,15094.153127375,-0.406890869140625,0.62225341796875,-0.674530029296875,15094.148153375,0.3678513602788612,-0.5218900220646654,-0.6751120354508741,-0.01297972165048122,0.05248396843671799,0.03762217983603477,-0.01862844824790955,-0.0006409883499145508,0.002049922943115234,XArbitraryZVertical,-0.2700517437314292,-0.2978479122456005,0.250729057590843,0.8806210995039701,-0.3891626596450806,0.6249848008155823,-0.6767173409461975,0,0,0,-1,-1
2022-06-09T02:51:46.653+01:00,15094.168050375,-0.4015350341796875,0.626953125,-0.6673583984375,15094.168050375,0.3676767830752857,-0.5213023699199921,-0.6758456165927732,-0.02359086275100708,0.05612028017640114,0.006268325261771679,-0.01664537191390991,-0.005348622798919678,0.009678006172180176,XArbitraryZVertical,-0.2704858486407319,-0.2975959017304378,0.2506390364183517,0.8805986972508051,-0.3885365128517151,0.6255572438240051,-0.676548182964325,0,0,0,-1,-1
2022-06-09T02:51:46.668+01:00,15094.182943375,-0.3896026611328125,0.6277008056640625,-0.66827392578125,15094.168050375,0.3676767830752857,-0.5213023699199921,-0.6758456165927732,-0.02359086275100708,0.05612028017640114,0.006268325261771679,-0.01664537191390991,-0.005348622798919678,0.009678006172180176,XArbitraryZVertical,-0.2704858486407319,-0.2975959017304378,0.2506390364183517,0.8805986972508051,-0.3885365128517151,0.6255572438240051,-0.676548182964325,0,0,0,-1,-1
2022-06-09T02:51:46.683+01:00,15094.197866375,-0.3932342529296875,0.608856201171875,-0.6571807861328125,15094.187917375,0.3660508616322175,-0.5222481290301675,-0.6754416631339426,-0.03067087754607201,0.05384806916117668,-0.01599623449146748,-0.0003004372119903564,0.002458631992340088,0.008125424385070801,XArbitraryZVertical,-0.2704253096322454,-0.2977758800477053,0.2500144560360711,0.8807339752207671,-0.3893021941184998,0.6252420544624329,-0.6763993501663208,0,0,0,-1,-1
2022-06-09T02:51:46.698+01:00,15094.212789375,-0.3935699462890625,0.6261138916015625,-0.6499481201171875,15094.207815375,0.3642288515784692,-0.5232253117163558,-0.6756637408985499,-0.03495350480079651,0.04837767034769058,-0.04062328115105629,-0.004225671291351318,-0.01390421390533447,0.02559924125671387,XArbitraryZVertical,-0.2706759220150181,-0.2979687455791185,0.2493644241857513,0.8807760832402378,-0.3898935914039612,0.6254153847694397,-0.6758983731269836,0,0,0,-1,-1
2022-06-09T02:51:46.713+01:00,15094.227712375,-0.378021240234375,0.617645263671875,-0.665771484375,15094.207815375,0.3642288515784692,-0.5232253117163558,-0.6756637408985499,-0.03495350480079651,0.04837767034769058,-0.04062328115105629,-0.004225671291351318,-0.01390421390533447,0.02559924125671387,XArbitraryZVertical,-0.2706759220150181,-0.2979687455791185,0.2493644241857513,0.8807760832402378,-0.3898935914039612,0.6254153847694397,-0.6758983731269836,0,0,0,-1,-1
2022-06-09T02:51:46.728+01:00,15094.242635375,-0.378570556640625,0.627288818359375,-0.6692657470703125,15094.227712375,0.3621095189197878,-0.5241744434350609,-0.6755964988186873,-0.04223188012838364,0.05295374989509583,-0.03559743985533714,0.006034493446350098,-0.001431107521057129,0.01350075006484985,XArbitraryZVertical,-0.2708429328399003,-0.2980971515693716,0.2485533827749605,0.8809105344966315,-0.3905559778213501,0.6253628730773926,-0.6755644083023071,0,0,0,-1,-1
2022-06-09T02:51:46.743+01:00,15094.257528375,-0.3753814697265625,0.6280364990234375,-0.668792724609375,15094.247579375,0.3600535480909567,-0.5248056520887751,-0.6758510091603206,-0.06703188270330429,0.07189213484525681,-0.03715377300977707,0.01233208179473877,0.00172722339630127,0.005914211273193359,XArbitraryZVertical,-0.2711870824435843,-0.2981066229370377,0.2477565670536834,0.8810259836098022,-0.3909026086330414,0.6255614757537842,-0.6751800179481506,0,0,0,-1,-1
2022-06-09T02:51:46.757+01:00,15094.272451375,-0.3613433837890625,0.630340576171875,-0.68914794921875,15094.267476375,0.3583831311380905,-0.5247472169065275,-0.677285833436478,-0.08903289586305618,0.05856961756944656,-0.009467874653637409,0.0189988911151886,-0.0007190108299255371,-0.002256274223327637,XArbitraryZVertical,-0.2720973291797578,-0.297910025871768,0.2471444733782798,0.8809836855091076,-0.3904130458831787,0.6266802549362183,-0.6744253039360046,0,0,0,-1,-1
2022-06-09T02:51:46.773+01:00,15094.287374375,-0.365692138671875,0.649627685546875,-0.6945953369140625,15094.287374375,0.3566069808049244,-0.525408276600703,-0.6786645448522944,-0.07906442135572433,0.0400567427277565,0.003256747033447027,0.02966153621673584,0.0129929780960083,-0.02180194854736328,XArbitraryZVertical,-0.272908761422094,-0.298012256796951,0.2465788797207345,0.8808566474311402,-0.3904250860214233,0.6277540326118469,-0.6734189987182617,0,0,0,-1,-1
2022-06-09T02:51:46.787+01:00,15094.302297375,-0.3780517578125,0.6569061279296875,-0.704498291015625,15094.287374375,0.3566069808049244,-0.525408276600703,-0.6786645448522944,-0.07906442135572433,0.0400567427277565,0.003256747033447027,0.02966153621673584,0.0129929780960083,-0.02180194854736328,XArbitraryZVertical,-0.272908761422094,-0.298012256796951,0.2465788797207345,0.8808566474311402,-0.3904250860214233,0.6277540326118469,-0.6734189987182617,0,0,0,-1,-1
2022-06-09T02:51:46.802+01:00,15094.317190375,-0.3737945556640625,0.6380462646484375,-0.7107086181640625,15094.307271375,0.3556168514201089,-0.5256885375655387,-0.6802563363567136,-0.05342210829257965,0.02848939038813114,0.01614540070295334,0.01206010580062866,0.02791374921798706,-0.03205394744873047,XArbitraryZVertical,-0.2737471652527521,-0.2980609045963054,0.2463276328015836,0.8806503054572922,-0.3901118636131287,0.6289923191070557,-0.6724443435668945,0,0,0,-1,-1
2022-06-09T02:51:46.817+01:00,15094.332113375,-0.3649444580078125,0.6571044921875,-0.7078857421875,15094.327138375,0.3555466207563378,-0.5249305330296297,-0.6816583691347674,-0.09405653178691864,0.01114514004439116,0.01459696143865585,0.01901200413703918,0.01347291469573975,-0.03742033243179321,XArbitraryZVertical,-0.2744897971176563,-0.2977705898776082,0.2463217260172547,0.8805189393906514,-0.3891596794128418,0.6300816535949707,-0.6719760298728943,0,0,0,-1,-1
2022-06-09T02:51:46.833+01:00,15094.347036375,-0.3566436767578125,0.65521240234375,-0.6962432861328125,15094.347036375,0.3550287506360209,-0.5247520263034486,-0.6835855378448521,-0.08897288888692856,-0.004494362510740757,0.01723773404955864,0.03007805347442627,0.02726691961288452,-0.02862215042114258,XArbitraryZVertical,-0.2754667680307326,-0.2976934023985161,0.2462460065363419,0.8802611164192207,-0.3884306848049164,0.6315770149230957,-0.6709933876991272,0,0,0,-1,-1
2022-06-09T02:51:46.847+01:00,15094.361959375,-0.3595428466796875,0.648590087890625,-0.6852264404296875,15094.347036375,0.3550287506360209,-0.5247520263034486,-0.6835855378448521,-0.08897288888692856,-0.004494362510740757,0.01723773404955864,0.03007805347442627,0.02726691961288452,-0.02862215042114258,XArbitraryZVertical,-0.2754667680307326,-0.2976934023985161,0.2462460065363419,0.8802611164192207,-0.3884306848049164,0.6315770149230957,-0.6709933876991272,0,0,0,-1,-1
2022-06-09T02:51:46.862+01:00,15094.376882375,-0.36199951171875,0.6436614990234375,-0.6831817626953125,15094.366933375,0.3554886086034241,-0.523436274811622,-0.6848009273904875,-0.05277029797434807,-0.01946437545120716,-0.01514392625540495,0.02762061357498169,0.0160711407661438,-0.01438790559768677,XArbitraryZVertical,-0.2761139818738833,-0.2972234519407059,0.2463781308204088,0.8801801940841011,-0.3871634900569916,0.6325188279151917,-0.6708385944366455,0,0,0,-1,-1
2022-06-09T02:51:46.877+01:00,15094.391775375,-0.3687896728515625,0.6507568359375,-0.695343017578125,15094.386800375,0.3554527720664991,-0.5231235460731728,-0.6853883564661909,-0.002782010473310947,-0.03033572435379028,-0.03018435835838318,0.02301368117332458,0.009848475456237793,-0.01367336511611938,XArbitraryZVertical,-0.2764253772338279,-0.2971030324711333,0.2463727705396265,0.8801245472124805,-0.3867679834365845,0.6329737305641174,-0.6706376075744629,0,0,0,-1,-1
2022-06-09T02:51:46.892+01:00,15094.406698375,-0.3768310546875,0.6312713623046875,-0.6945648193359375,15094.406698375,0.3554738756785226,-0.5231749164176083,-0.6845765368548069,0.02634922042489052,-0.05201033502817154,-0.03314832225441933,0.01468354463577271,0.008661389350891113,-0.02394473552703857,XArbitraryZVertical,-0.2760461705104184,-0.2970979545769872,0.2463151181785833,0.8802614077056825,-0.3870590329170227,0.6323450207710266,-0.6710626482963562,0,0,0,-1,-1
2022-06-09T02:51:46.907+01:00,15094.421621375,-0.395477294921875,0.6350250244140625,-0.68524169921875,15094.406698375,0.3554738756785226,-0.5231749164176083,-0.6845765368548069,0.02634922042489052,-0.05201033502817154,-0.03314832225441933,0.01468354463577271,0.008661389350891113,-0.02394473552703857,XArbitraryZVertical,-0.2760461705104184,-0.2970979545769872,0.2463151181785833,0.8802614077056825,-0.3870590329170227,0.6323450207710266,-0.6710626482963562,0,0,0,-1,-1
2022-06-09T02:51:46.922+01:00,15094.436544375,-0.4037017822265625,0.62530517578125,-0.6692962646484375,15094.426595375,0.3558950367893053,-0.5233589177909628,-0.6838142698854456,0.04373819753527641,-0.07236878573894501,-0.04680170118808746,-0.008053988218307495,0.003270626068115234,-0.01383304595947266,XArbitraryZVertical,-0.2756137133602692,-0.2972082053513072,0.2464562946150841,0.8803202188937174,-0.3874233067035675,0.6317543387413025,-0.6714087128639221,0,0,0,-1,-1
2022-06-09T02:51:46.936+01:00,15094.451467375,-0.4048919677734375,0.6217803955078125,-0.6653289794921875,15094.446493375,0.3559116902868427,-0.5243591574355522,-0.6830218481536204,0.01652730442583561,-0.1014195755124092,-0.05446220934391022,-0.01380017399787903,-0.001714885234832764,0.002325534820556641,XArbitraryZVertical,-0.2751269968923238,-0.2976207684734341,0.246528900277083,0.8803127649506477,-0.3883452117443085,0.631139874458313,-0.6714540123939514,0,0,0,-1,-1
2022-06-09T02:51:46.952+01:00,15094.466360375,-0.4167022705078125,0.6248321533203125,-0.6657867431640625,15094.466360375,0.3563019177683036,-0.5252263078056025,-0.6825428545309103,0.0373743511736393,-0.08859624713659286,-0.02634805627167225,-0.02390027046203613,-0.0125279426574707,0.009925246238708496,XArbitraryZVertical,-0.2747437494005392,-0.2980379275068797,0.2467759438765086,0.8802221389746402,-0.3890788555145264,0.6307682394981384,-0.6713785529136658,0,0,0,-1,-1
2022-06-09T02:51:46.966+01:00,15094.481283375,-0.4073486328125,0.6397552490234375,-0.664398193359375,15094.466360375,0.3563019177683036,-0.5252263078056025,-0.6825428545309103,0.0373743511736393,-0.08859624713659286,-0.02634805627167225,-0.02390027046203613,-0.0125279426574707,0.009925246238708496,XArbitraryZVertical,-0.2747437494005392,-0.2980379275068797,0.2467759438765086,0.8802221389746402,-0.3890788555145264,0.6307682394981384,-0.6713785529136658,0,0,0,-1,-1
2022-06-09T02:51:46.981+01:00,15094.496206375,-0.392669677734375,0.6501312255859375,-0.6597900390625,15094.486257375,0.3571843194972457,-0.5254098892856306,-0.6820254776942641,0.008893243037164211,-0.07589545845985413,-0.01330623123794794,-0.01798295974731445,0.009388506412506104,0.007191061973571777,XArbitraryZVertical,-0.2743538896731396,-0.2982202400683416,0.2471420694848339,0.8801791643976324,-0.3893657028675079,0.6303666830062866,-0.6715892553329468,0,0,0,-1,-1
2022-06-09T02:51:46.996+01:00,15094.511129375,-0.3926849365234375,0.6436309814453125,-0.643768310546875,15094.506154375,0.3567824040534733,-0.5265946981109526,-0.6820368809513087,-0.06397967785596848,-0.05457300692796707,-0.01803094521164894,-0.001062542200088501,0.01855009794235229,0.01603090763092041,XArbitraryZVertical,-0.2742726584561192,-0.2986869377516783,0.2471287620707877,0.8800499436563736,-0.3901575207710266,0.6303755640983582,-0.6711212396621704,0,0,0,-1,-1
2022-06-09T02:51:47.011+01:00,15094.526021375,-0.398162841796875,0.64111328125,-0.63201904296875,15094.506154375,0.3567824040534733,-0.5265946981109526,-0.6820368809513087,-0.06397967785596848,-0.05457300692796707,-0.01803094521164894,-0.001062542200088501,0.01855009794235229,0.01603090763092041,XArbitraryZVertical,-0.2742726584561192,-0.2986869377516783,0.2471287620707877,0.8800499436563736,-0.3901575207710266,0.6303755640983582,-0.6711212396621704,0,0,0,-1,-1
2022-06-09T02:51:47.026+01:00,15094.540944375,-0.389434814453125,0.646636962890625,-0.643280029296875,15094.526021375,0.3548854944541609,-0.5287419018184343,-0.6826464337853356,-0.05550698563456535,0.0004538209177553654,-0.03480720520019531,-0.004516035318374634,0.01000523567199707,0.03512340784072876,XArbitraryZVertical,-0.2745688157233006,-0.2993942439533809,0.2466450454906567,0.8798530148229994,-0.3914037942886353,0.6308485865592957,-0.6699501276016235,0,0,0,-1,-1
2022-06-09T02:51:47.043+01:00,15094.555868375,-0.3959503173828125,0.6246185302734375,-0.6530303955078125,15094.545919375,0.3529914785960305,-0.5301405288437621,-0.6822971720239848,-0.005925850477069616,0.04695643112063408,-0.02920478954911232,0.003016948699951172,0.0160592794418335,0.02631193399429321,XArbitraryZVertical,-0.2745212321762906,-0.2997366958532408,0.245971352082591,0.8799397721418171,-0.3924517631530762,0.630577564239502,-0.669592022895813,0,0,0,-1,-1
2022-06-09T02:51:47.056+01:00,15094.570791375,-0.3969879150390625,0.6214141845703125,-0.6580352783203125,15094.565816375,0.3515032564269183,-0.5305082133467207,-0.6825009771843198,-0.06986377388238907,0.06543083488941193,-0.01864699088037014,-0.005468875169754028,-0.005506992340087891,0.01224756240844727,XArbitraryZVertical,-0.2747918806142924,-0.2997015020652888,0.2453860107191452,0.8800307964493932,-0.392632931470871,0.6307357549667358,-0.6693368554115295,0,0,0,-1,-1
2022-06-09T02:51:47.071+01:00,15094.585714375,-0.3926544189453125,0.621978759765625,-0.6614837646484375,15094.565816375,0.3515032564269183,-0.5305082133467207,-0.6825009771843198,-0.06986377388238907,0.06543083488941193,-0.01864699088037014,-0.005468875169754028,-0.005506992340087891,0.01224756240844727,XArbitraryZVertical,-0.2747918806142924,-0.2997015020652888,0.2453860107191452,0.8800307964493932,-0.392632931470871,0.6307357549667358,-0.6693368554115295,0,0,0,-1,-1
