loggingTime(txt),accelerometerTimestamp_sinceReboot(s),accelerometerAccelerationX(G),accelerometerAccelerationY(G),accelerometerAccelerationZ(G),motionTimestamp_sinceReboot(s),motionYaw(rad),motionRoll(rad),motionPitch(rad),motionRotationRateX(rad/s),motionRotationRateY(rad/s),motionRotationRateZ(rad/s),motionUserAccelerationX(G),motionUserAccelerationY(G),motionUserAccelerationZ(G),motionAttitudeReferenceFrame(txt),motionQuaternionX(R),motionQuaternionY(R),motionQuaternionZ(R),motionQuaternionW(R),motionGravityX(G),motionGravityY(G),motionGravityZ(G),motionMagneticFieldX(µT),motionMagneticFieldY(µT),motionMagneticFieldZ(µT),motionHeading(°),motionMagneticFieldCalibrationAccuracy(Z)
2022-06-08T09:19:36.621+01:00,3968.884457041667,0.042205810546875,-0.2981109619140625,-0.961151123046875,3968.874509041667,2.330952695564052,0.07935653544588585,0.09667585670223705,-0.01778684929013252,-0.02183027565479279,0.1245731934905052,-0.04603573679924011,-0.164781391620636,0.03374785184860229,XArbitraryZVertical,-0.01737339789875993,0.05999244252821528,0.9179361230587869,0.3917807431318326,0.07890310883522034,-0.09652533382177353,-0.9921981692314148,0,0,0,-1,-1
2022-06-08T09:19:36.624+01:00,3968.899381041667,0.0359344482421875,-0.207550048828125,-0.9552459716796875,3968.894406041667,2.334369831257014,0.07860867503447948,0.08991292766186955,-0.581699013710022,-0.02661615423858166,0.1370620280504227,-0.03528762608766556,-0.178121954202652,0.03411424160003662,XArbitraryZVertical,-0.01846364461519362,0.05671520815109017,0.918703466291521,0.3904182520812,0.07821053266525269,-0.08979182690382004,-0.9928849339485168,0,0,0,-1,-1
2022-06-08T09:19:36.646+01:00,3968.914273041667,0.0421295166015625,-0.1547088623046875,-0.9581451416015625,3968.894406041667,2.334369831257014,0.07860867503447948,0.08991292766186955,-0.581699013710022,-0.02661615423858166,0.1370620280504227,-0.03528762608766556,-0.178121954202652,0.03411424160003662,XArbitraryZVertical,-0.01846364461519362,0.05671520815109017,0.918703466291521,0.3904182520812,0.07821053266525269,-0.08979182690382004,-0.9928849339485168,0,0,0,-1,-1
2022-06-08T09:19:36.656+01:00,3968.929196041667,0.03924560546875,-0.1690826416015625,-0.97711181640625,3968.914273041667,2.337184471363229,0.07802624246834818,0.07838164163942261,-0.5589064359664917,-0.01122468058019876,0.05207354202866554,-0.04105623066425323,-0.08512018620967865,0.04177868366241455,XArbitraryZVertical,-0.02053767586125919,0.05128273773910279,0.9193923882119154,0.3894430389680277,0.07770777493715286,-0.07830140739679337,-0.9938965439796448,0,0,0,-1,-1
2022-06-08T09:19:36.662+01:00,3968.944119041667,0.0259552001953125,-0.1632232666015625,-0.9698638916015625,3968.934171041667,2.339044932394787,0.07742637245391336,0.06823270203488334,-0.4568450450897217,-0.03091902285814285,0.0712277963757515,-0.03792349994182587,-0.1009028479456902,0.01757228374481201,XArbitraryZVertical,-0.02229535605496748,0.04648513361743344,0.9198547913948701,0.3888562388459954,0.07716904580593109,-0.06817977130413055,-0.994684100151062,0,0,0,-1,-1
2022-06-08T09:19:36.665+01:00,3968.959042041667,0.0173492431640625,-0.1706390380859375,-0.9517822265625,3968.954068041667,2.341241627687189,0.0764476294937939,0.06067591941421884,-0.3283705711364746,-0.06061649322509766,0.09717366099357605,-0.04985026270151138,-0.09938019514083862,0.02972936630249023,XArbitraryZVertical,-0.02337046722925379,0.04279710235529895,0.9203479933608576,0.3880486965940252,0.07623264193534851,-0.06063869595527649,-0.9952444434165955,0,0,0,-1,-1
2022-06-08T09:19:36.668+01:00,3968.973935041667,0.0053253173828125,-0.1555633544921875,-0.9326934814453125,3968.973935041667,2.343975500404434,0.07518095482501178,0.05618466518075566,-0.1173469349741936,-0.0464932806789875,0.1370075941085815,-0.06754539906978607,-0.1085634902119637,0.05236446857452393,XArbitraryZVertical,-0.02371902542542412,0.04045404250529672,0.9209198395194885,0.3869204221671727,0.07499163597822189,-0.05615511164069176,-0.9956017732620239,0,0,0,-1,-1
2022-06-08T09:19:36.673+01:00,3968.988858041667,0.0058441162109375,-0.1490478515625,-0.93572998046875,3968.973935041667,2.343975500404434,0.07518095482501178,0.05618466518075566,-0.1173469349741936,-0.0464932806789875,0.1370075941085815,-0.06754539906978607,-0.1085634902119637,0.05236446857452393,XArbitraryZVertical,-0.02371902542542412,0.04045404250529672,0.9209198395194885,0.3869204221671727,0.07499163597822189,-0.05615511164069176,-0.9956017732620239,0,0,0,-1,-1
2022-06-08T09:19:36.748+01:00,3969.003781041667,-0.010833740234375,-0.20391845703125,-0.9667816162109375,3968.993832041667,2.347040061407244,0.07417308871202707,0.05598449771964598,0.02265455946326256,-0.0443093404173851,0.1641977429389954,-0.06814493238925934,-0.09309256076812744,0.05995804071426392,XArbitraryZVertical,-0.02335537611436337,0.04013122485223766,0.9215246772476637,0.3855337353794067,0.07398899644613266,-0.05595525726675987,-0.9956880211830139,0,0,0,-1,-1
2022-06-08T09:19:36.752+01:00,3969.018704041667,-0.0142364501953125,-0.2032318115234375,-0.9945220947265625,3969.013730041667,2.350257233835438,0.07313200428652944,0.05484601549505989,-0.196291983127594,-0.04565745964646339,0.1334737688302994,-0.08650683611631393,-0.1523957997560501,0.01485514640808105,XArbitraryZVertical,-0.02315958133913575,0.03936919648107263,0.922162262265116,0.3840970094991206,0.07295696437358856,-0.0548185221850872,-0.9958273768424988,0,0,0,-1,-1
2022-06-08T09:19:36.756+01:00,3969.033597041667,-0.013946533203125,-0.1775360107421875,-1.0067138671875,3969.013730041667,2.350257233835438,0.07313200428652944,0.05484601549505989,-0.196291983127594,-0.04565745964646339,0.1334737688302994,-0.08650683611631393,-0.1523957997560501,0.01485514640808105,XArbitraryZVertical,-0.02315958133913575,0.03936919648107263,0.922162262265116,0.3840970094991206,0.07295696437358856,-0.0548185221850872,-0.9958273768424988,0,0,0,-1,-1
2022-06-08T09:19:36.761+01:00,3969.048520041667,-0.0169830322265625,-0.1702728271484375,-0.9954681396484375,3969.033597041667,2.353081199805321,0.07182037848075609,0.04990536500848417,-0.2912912368774414,-0.07609070092439651,0.119790144264698,-0.08621098846197128,-0.1376763582229614,-0.01067095994949341,XArbitraryZVertical,-0.0235601318004242,0.03680774226195065,0.9227443397681747,0.3829269609348593,0.0716693103313446,-0.04988465085625648,-0.9961802363395691,0,0,0,-1,-1
2022-06-08T09:19:36.764+01:00,3969.063443041667,-0.028228759765625,-0.1761932373046875,-0.9752960205078125,3969.053494041667,2.355444621483866,0.06983390961830208,0.04379555903554334,-0.3420259356498718,-0.1013029664754868,0.07468827068805695,-0.08669335395097733,-0.1264912337064743,0.001137971878051758,XArbitraryZVertical,-0.02385804695262262,0.03358213417152058,0.9232443399979108,0.3819983800104887,0.06971025466918945,-0.04378155991435051,-0.9966060519218445,0,0,0,-1,-1
2022-06-08T09:19:36.767+01:00,3969.078366041667,-0.03021240234375,-0.1698760986328125,-0.955718994140625,3969.073392041667,2.356631721922994,0.06789769850493468,0.03702910610050861,-0.3485786020755768,-0.09479369968175888,0.003874740563333035,-0.09488344192504883,-0.1322755962610245,0.03227496147155762,XArbitraryZVertical,-0.02427909642835051,0.03007601682007089,0.9235128828698935,0.3816149723078834,0.06779903173446655,-0.03702064603567123,-0.9970118999481201,0,0,0,-1,-1
2022-06-08T09:19:36.771+01:00,3969.093289041667,-0.0399627685546875,-0.172760009765625,-0.9488677978515625,3969.073392041667,2.356631721922994,0.06789769850493468,0.03702910610050861,-0.3485786020755768,-0.09479369968175888,0.003874740563333035,-0.09488344192504883,-0.1322755962610245,0.03227496147155762,XArbitraryZVertical,-0.02427909642835051,0.03007601682007089,0.9235128828698935,0.3816149723078834,0.06779903173446655,-0.03702064603567123,-0.9970118999481201,0,0,0,-1,-1
2022-06-08T09:19:36.777+01:00,3969.108182041667,-0.04254150390625,-0.1602020263671875,-0.950958251953125,3969.093289041667,2.356852010871321,0.06602940489197882,0.03040205280901497,-0.2933292388916016,-0.09483323246240616,-0.0272691585123539,-0.1037927940487862,-0.1466350704431534,0.0459589958190918,XArbitraryZVertical,-0.0246875248963626,0.02665803452289252,0.9235868927888081,0.381663470896009,0.06595094501972198,-0.03039737045764923,-0.9973597526550293,0,0,0,-1,-1
2022-06-08T09:19:36.780+01:00,3969.123105041667,-0.043243408203125,-0.17938232421875,-0.958160400390625,3969.113156041667,2.356324358273892,0.06426525347023634,0.02602879477106268,-0.1408451646566391,-0.08568113297224045,-0.0605345293879509,-0.106740839779377,-0.1341761350631714,0.04663944244384766,XArbitraryZVertical,-0.02470295003733591,0.02430905215570334,0.9235092252349064,0.3820072506040489,0.06419927626848221,-0.02602585591375828,-0.9975976943969727,0,0,0,-1,-1
2022-06-08T09:19:36.790+01:00,3969.138028041667,-0.049407958984375,-0.209930419921875,-0.975982666015625,3969.133054041667,2.354802865346239,0.06272661764941553,0.02285800017452885,-0.2192108333110809,-0.0634068101644516,-0.1186292991042137,-0.1103681474924088,-0.1684433966875076,0.03553813695907593,XArbitraryZVertical,-0.02458213447053396,0.02257017396251723,0.9232359104327805,0.3827816603077838,0.06266911327838898,-0.02285601012408733,-0.9977726340293884,0,0,0,-1,-1
2022-06-08T09:19:36.805+01:00,3969.152951041667,-0.0339202880859375,-0.1988983154296875,-0.9936981201171875,3969.133054041667,2.354802865346239,0.06272661764941553,0.02285800017452885,-0.2192108333110809,-0.0634068101644516,-0.1186292991042137,-0.1103681474924088,-0.1684433966875076,0.03553813695907593,XArbitraryZVertical,-0.02458213447053396,0.02257017396251723,0.9232359104327805,0.3827816603077838,0.06266911327838898,-0.02285601012408733,-0.9977726340293884,0,0,0,-1,-1
2022-06-08T09:19:36.820+01:00,3969.167844041667,-0.0242767333984375,-0.170989990234375,-0.9929962158203125,3969.152951041667,2.352029722754621,0.06176069730136774,0.0161625228653321,-0.4142947196960449,-0.04565583169460297,-0.1877668648958206,-0.1015846505761147,-0.1907931119203568,0.008110165596008301,XArbitraryZVertical,-0.0253930030821964,0.01933052508834382,0.922706353676743,0.3841801889635479,0.06171337887644768,-0.01616181991994381,-0.9979630708694458,0,0,0,-1,-1
2022-06-08T09:19:36.834+01:00,3969.182767041667,-0.0193328857421875,-0.1654510498046875,-0.9929351806640625,3969.172818041667,2.348621075003133,0.06099734237122097,0.00782951533364931,-0.3662610054016113,-0.02771307900547981,-0.2040607631206512,-0.08523444831371307,-0.1631605327129364,0.005113422870635986,XArbitraryZVertical,-0.0266170325619536,0.01538541172799195,0.9220338680803252,0.3858864805212087,0.0609576553106308,-0.007829435169696808,-0.9981096386909485,0,0,0,-1,-1
2022-06-08T09:19:36.849+01:00,3969.197690041667,-0.01190185546875,-0.175445556640625,-0.993255615234375,3969.192716041667,2.345000279869956,0.06048189296763529,0.00121965786678086,-0.2811461091041565,-0.03480925038456917,-0.1910369247198105,-0.07655831426382065,-0.1708536744117737,0.001100480556488037,XArbitraryZVertical,-0.02763311286273005,0.01228895141902755,0.9213087205812293,0.3876540938462261,0.06044498085975647,-0.001219657598994672,-0.998170793056488,0,0,0,-1,-1
2022-06-08T09:19:36.864+01:00,3969.212613041667,-0.0174407958984375,-0.1778411865234375,-1.003005981445312,3969.192716041667,2.345000279869956,0.06048189296763529,0.00121965786678086,-0.2811461091041565,-0.03480925038456917,-0.1910369247198105,-0.07655831426382065,-0.1708536744117737,0.001100480556488037,XArbitraryZVertical,-0.02763311286273005,0.01228895141902755,0.9213087205812293,0.3876540938462261,0.06044498085975647,-0.001219657598994672,-0.998170793056488,0,0,0,-1,-1
2022-06-08T09:19:36.879+01:00,3969.227506041667,-0.027679443359375,-0.2077178955078125,-1.032272338867188,3969.212613041667,2.342322788860052,0.05973119009437739,-0.003898696628044416,-0.2441351711750031,-0.03853477537631989,-0.1075634807348251,-0.07460311055183411,-0.1793137043714523,-5.662441253662109e-06,XArbitraryZVertical,-0.02826625433402423,0.00982347425432463,0.9207678947686874,0.3889614433619935,0.05969522520899773,0.003898686729371548,-0.9982090592384338,0,0,0,-1,-1
2022-06-08T09:19:36.894+01:00,3969.242429041667,-0.0321502685546875,-0.179534912109375,-1.0474853515625,3969.232480041667,2.341432195392695,0.05885613651577304,-0.01021579085380554,-0.3986813127994537,-0.04614070802927017,-0.02345743402838707,-0.08649858832359314,-0.2179334759712219,-0.03405594825744629,XArbitraryZVertical,-0.02908847909793029,0.006757732969265615,0.920560367672683,0.3894568599028996,0.05881909281015396,0.01021561305969954,-0.9982163906097412,0,0,0,-1,-1
2022-06-08T09:19:36.909+01:00,3969.257352041667,-0.02972412109375,-0.13629150390625,-1.060348510742188,3969.252377041667,2.341502105296951,0.0579296981648223,-0.01921537301104366,-0.4721666276454926,-0.04798316955566406,-0.02624543942511082,-0.08843476325273514,-0.1775088459253311,-0.05307024717330933,XArbitraryZVertical,-0.03041310457795631,0.002433304936125225,0.9205061557251916,0.3895349590706413,0.05788661539554596,0.01921419054269791,-0.9981382489204407,0,0,0,-1,-1
2022-06-08T09:19:36.924+01:00,3969.272275041667,-0.0350189208984375,-0.14166259765625,-1.06292724609375,3969.252377041667,2.341502105296951,0.0579296981648223,-0.01921537301104366,-0.4721666276454926,-0.04798316955566406,-0.02624543942511082,-0.08843476325273514,-0.1775088459253311,-0.05307024717330933,XArbitraryZVertical,-0.03041310457795631,0.002433304936125225,0.9205061557251916,0.3895349590706413,0.05788661539554596,0.01921419054269791,-0.9981382489204407,0,0,0,-1,-1
2022-06-08T09:19:36.939+01:00,3969.287167041667,-0.0469512939453125,-0.1646575927734375,-1.058502197265625,3969.272275041667,2.341480610876814,0.05681407299819782,-0.02845315070129374,-0.4750215411186218,-0.0687711238861084,-0.03124082647264004,-0.08909396082162857,-0.1680519431829453,-0.0665164589881897,XArbitraryZVertical,-0.03169622940946561,-0.002036426108640571,0.9204170241733897,0.3896455447079968,0.05676053091883659,0.02844931185245514,-0.997982382774353,0,0,0,-1,-1
2022-06-08T09:19:36.954+01:00,3969.302091041667,-0.0431976318359375,-0.1734771728515625,-1.0380859375,3969.292142041667,2.341515478385955,0.05524451450442355,-0.03903446846161387,-0.5970160365104675,-0.08989561349153519,-0.02275677584111691,-0.1021257042884827,-0.2036821246147156,-0.06078839302062988,XArbitraryZVertical,-0.03303097020500578,-0.007214093707757328,0.9203093266356533,0.389727593158871,0.05517435818910599,0.03902455791831017,-0.9977138042449951,0,0,0,-1,-1
2022-06-08T09:19:36.968+01:00,3969.317014041667,-0.0400543212890625,-0.168731689453125,-1.00018310546875,3969.312039041667,2.341651803142149,0.05323122740447386,-0.05181107181121943,-0.6550502777099609,-0.1137966215610504,-0.02383166551589966,-0.09447081387042999,-0.223968043923378,-0.03129035234451294,XArbitraryZVertical,-0.03458647776127947,-0.01349057837157251,0.9201688871646934,0.3897574359971773,0.05313469469547272,0.05178789421916008,-0.9972435832023621,0,0,0,-1,-1
2022-06-08T09:19:36.984+01:00,3969.331937041667,-0.0387725830078125,-0.1556396484375,-0.9757537841796875,3969.312039041667,2.341651803142149,0.05323122740447386,-0.05181107181121943,-0.6550502777099609,-0.1137966215610504,-0.02383166551589966,-0.09447081387042999,-0.223968043923378,-0.03129035234451294,XArbitraryZVertical,-0.03458647776127947,-0.01349057837157251,0.9201688871646934,0.3897574359971773,0.05313469469547272,0.05178789421916008,-0.9972435832023621,0,0,0,-1,-1
2022-06-08T09:19:36.998+01:00,3969.346829041667,-0.0296478271484375,-0.13787841796875,-0.958465576171875,3969.331937041667,2.34216302198374,0.05092397797299389,-0.06366824652025087,-0.5105438828468323,-0.1123740822076797,0.002862777560949326,-0.09025812149047852,-0.2244223356246948,0.01167953014373779,XArbitraryZVertical,-0.03582277748175973,-0.01940766183633294,0.9200914854543453,0.3895788326880646,0.05079883709549904,0.06362523883581161,-0.9966801404953003,0,0,0,-1,-1
2022-06-08T09:19:37.013+01:00,3969.361752041667,-0.04913330078125,-0.150543212890625,-0.9529571533203125,3969.351804041667,2.341827550163645,0.04902047557294438,-0.07171920090146727,-0.2851945459842682,-0.08400812745094299,-0.06615263968706131,-0.07852276414632797,-0.2095361351966858,0.03776556253433228,XArbitraryZVertical,-0.03651309419550108,-0.0234785253564073,0.9198960128592423,0.3897523697874468,0.0488748773932457,0.07165773212909698,-0.9962310791015625,0,0,0,-1,-1
2022-06-08T09:19:37.028+01:00,3969.376676041667,-0.0635223388671875,-0.1806640625,-0.9676361083984375,3969.371701041667,2.340487778871351,0.04769201741765031,-0.07571032060696686,-0.1616649329662323,-0.03619749471545219,-0.1104544997215271,-0.1047578901052475,-0.2315523028373718,0.03823792934417725,XArbitraryZVertical,-0.0366937169339164,-0.02554986664627963,0.919572526693241,0.3903679378002495,0.04753737151622772,0.07563801109790802,-0.9960015416145325,0,0,0,-1,-1
2022-06-08T09:19:37.045+01:00,3969.391599041667,-0.0566253662109375,-0.2023773193359375,-0.974853515625,3969.371701041667,2.340487778871351,0.04769201741765031,-0.07571032060696686,-0.1616649329662323,-0.03619749471545219,-0.1104544997215271,-0.1047578901052475,-0.2315523028373718,0.03823792934417725,XArbitraryZVertical,-0.0366937169339164,-0.02554986664627963,0.919572526693241,0.3903679378002495,0.04753737151622772,0.07563801109790802,-0.9960015416145325,0,0,0,-1,-1
2022-06-08T09:19:37.058+01:00,3969.406522041667,-0.0412750244140625,-0.19134521484375,-0.969757080078125,3969.391599041667,2.337831975874348,0.0471691879623576,-0.08010571708954911,-0.2891109883785248,-0.0009506791830062866,-0.1695337891578674,-0.1082035526633263,-0.2793914079666138,0.02340978384017944,XArbitraryZVertical,-0.03734423647248598,-0.02762477729525565,0.918963928200429,0.3915962346878525,0.04700049385428429,0.08002007007598877,-0.9956845641136169,0,0,0,-1,-1
2022-06-08T09:19:37.073+01:00,3969.421414041667,-0.0369873046875,-0.1839141845703125,-0.962249755859375,3969.411466041667,2.334663990146327,0.04726503619488981,-0.08705274696958018,-0.3767394423484802,0.04016213864088058,-0.17523093521595,-0.08834360539913177,-0.2782880365848541,0.02534365653991699,XArbitraryZVertical,-0.03879095790709437,-0.03073903068120475,0.9181750796133296,0.3930711709721049,0.0470685288310051,0.08694283664226532,-0.995100736618042,0,0,0,-1,-1
2022-06-08T09:19:37.087+01:00,3969.436337041667,-0.046630859375,-0.182037353515625,-0.9765472412109375,3969.431363041667,2.331714117568749,0.04857712348503888,-0.09575810781232384,-0.5010316967964172,0.1319697946310043,-0.1612575650215149,-0.08848148584365845,-0.2833101749420166,0.03074347972869873,XArbitraryZVertical,-0.04114628678667951,-0.03442022602652509,0.9173442929259038,0.3944637225910977,0.04833556339144707,0.09561183303594589,-0.9942444562911987,0,0,0,-1,-1
2022-06-08T09:19:37.103+01:00,3969.451260041667,-0.0524749755859375,-0.139739990234375,-1.021347045898438,3969.431363041667,2.331714117568749,0.04857712348503888,-0.09575810781232384,-0.5010316967964172,0.1319697946310043,-0.1612575650215149,-0.08848148584365845,-0.2833101749420166,0.03074347972869873,XArbitraryZVertical,-0.04114628678667951,-0.03442022602652509,0.9173442929259038,0.3944637225910977,0.04833556339144707,0.09561183303594589,-0.9942444562911987,0,0,0,-1,-1
2022-06-08T09:19:37.117+01:00,3969.466184041667,-0.032012939453125,-0.1034393310546875,-1.0843505859375,3969.451260041667,2.328772376888665,0.05214546222518626,-0.1073842575687999,-0.6363508105278015,0.2603988945484161,-0.1767087131738663,-0.1033505871891975,-0.2583620548248291,-0.01350504159927368,XArbitraryZVertical,-0.04511964433489627,-0.03898733079536394,0.9163573305404928,0.3958956557179786,0.05182160437107086,0.1071779951453209,-0.9928883910179138,0,0,0,-1,-1
2022-06-08T09:19:37.133+01:00,3969.481076041667,-0.1114959716796875,-0.0811614990234375,-1.151885986328125,3969.471127041667,2.327028161882244,0.05759142428156805,-0.120707927688844,-0.7151961922645569,0.3456701040267944,-0.1110945269465446,-0.08915376663208008,-0.2238543331623077,-0.09327280521392822,XArbitraryZVertical,-0.05027117145685658,-0.04397637546828693,0.9154610719756276,0.3968247918622432,0.0571407675743103,0.1204150170087814,-0.9910777807235718,0,0,0,-1,-1
2022-06-08T09:19:37.148+01:00,3969.495999041667,-0.0026702880859375,-0.0667877197265625,-1.194091796875,3969.491025041667,2.324952247069517,0.06487834634561897,-0.139303062728597,-1.217294573783875,0.378343254327774,-0.248601421713829,-0.1439167857170105,-0.2180766016244888,-0.1802427172660828,XArbitraryZVertical,-0.05731443606750371,-0.0509930618606225,0.9141857906837705,0.3979686476322285,0.06420480459928513,0.1388529688119888,-0.988229513168335,0,0,0,-1,-1
2022-06-08T09:19:37.163+01:00,3969.510922041667,0.0518035888671875,0.019927978515625,-1.169662475585938,3969.491025041667,2.324952247069517,0.06487834634561897,-0.139303062728597,-1.217294573783875,0.378343254327774,-0.248601421713829,-0.1439167857170105,-0.2180766016244888,-0.1802427172660828,XArbitraryZVertical,-0.05731443606750371,-0.0509930618606225,0.9141857906837705,0.3979686476322285,0.06420480459928513,0.1388529688119888,-0.988229513168335,0,0,0,-1,-1
2022-06-08T09:19:37.187+01:00,3969.525845041667,-0.2160186767578125,-0.12530517578125,-1.026824951171875,3969.510922041667,2.322037285399736,0.07077021286537026,-0.1663186451591886,-1.329677104949951,0.2402723282575607,-0.08071461319923401,-0.005694322288036346,-0.1631572693586349,-0.1918811202049255,XArbitraryZVertical,-0.06540888389639378,-0.06209297971592265,0.912296794585914,0.3994753293776458,0.06973540037870407,0.1655529290437698,-0.983732283115387,0,0,0,-1,-1
2022-06-08T09:19:37.271+01:00,3969.540738041667,0.2975006103515625,0.2431793212890625,-1.029693603515625,3969.530820041667,2.340366465842674,0.07519303220408773,-0.1803922164235987,-0.1873210817575455,0.09862335026264191,1.327980637550354,-0.2899219393730164,-0.3047206103801727,-0.04583138227462769,XArbitraryZVertical,-0.06957330370853318,-0.06828443478686984,0.9151105452067382,0.391240775587415,0.07390321791172028,0.1794154345989227,-0.9809935688972473,0,0,0,-1,-1
2022-06-08T09:19:37.276+01:00,3969.555661041667,0.577392578125,-0.24737548828125,-1.013702392578125,3969.550687041667,2.35037766227356,0.08160939056764634,-0.1861043470876267,-0.6155296564102173,0.1523960530757904,0.001920551061630249,0.3754246234893799,-0.1225319057703018,-0.04862964153289795,XArbitraryZVertical,-0.07325762483066156,-0.07001735952688933,0.9165450114872921,0.3868798699889043,0.08011120557785034,0.185031920671463,-0.9794617891311646,0,0,0,-1,-1
2022-06-08T09:19:37.278+01:00,3969.570584041667,0.519287109375,-0.1885528564453125,-0.84564208984375,3969.550687041667,2.35037766227356,0.08160939056764634,-0.1861043470876267,-0.6155296564102173,0.1523960530757904,0.001920551061630249,0.3754246234893799,-0.1225319057703018,-0.04862964153289795,XArbitraryZVertical,-0.07325762483066156,-0.07001735952688933,0.9165450114872921,0.3868798699889043,0.08011120557785034,0.185031920671463,-0.9794617891311646,0,0,0,-1,-1
2022-06-08T09:19:37.281+01:00,3969.585507041667,0.480682373046875,-0.1338043212890625,-0.678497314453125,3969.570584041667,2.359731168844312,0.08386831589691922,-0.2096686918228043,-1.83278214931488,-0.05502613633871078,0.6464186906814575,0.4609874486923218,-0.42745041847229,0.06993788480758667,XArbitraryZVertical,-0.07838512231137219,-0.08077600780126014,0.9169990395139404,0.3826798623484542,0.08193545788526535,0.2081358581781387,-0.9746620059013367,0,0,0,-1,-1
2022-06-08T09:19:37.285+01:00,3969.600400041667,0.530029296875,-0.027679443359375,-0.525238037109375,3969.590482041667,2.381497922341938,0.08716733776454731,-0.2527381172612889,-2.612704753875732,-0.1303422749042511,1.190812110900879,0.3963910043239594,-0.383860319852829,0.2860580086708069,XArbitraryZVertical,-0.08684776203275045,-0.100895033780183,0.9183301971002864,0.3727563630107022,0.08429131656885147,0.2500560283660889,-0.9645553231239319,0,0,0,-1,-1
2022-06-08T09:19:37.291+01:00,3969.615323041667,0.596038818359375,0.0057830810546875,-0.419921875,3969.610349041667,2.418933029732723,0.09380774549092227,-0.3078537137344271,-3.251744985580444,-0.2491249740123749,1.893784403800964,0.4657261967658997,-0.3119098246097565,0.4670456647872925,XArbitraryZVertical,-0.09748227593853628,-0.1268824252888011,0.9208097562029466,0.3556790404086401,0.08926641941070557,0.303013950586319,-0.9487960934638977,0,0,0,-1,-1
2022-06-08T09:19:37.294+01:00,3969.630246041667,0.642303466796875,0.00299072265625,-0.31787109375,3969.630246041667,2.473028371166369,0.1059527372544226,-0.37566122384265,-4.058962345123291,-0.3469141125679016,2.506894826889038,0.529702365398407,-0.3739983141422272,0.5728451609611511,XArbitraryZVertical,-0.1103186217624097,-0.1590771242592955,0.9234853114247566,0.331208577276249,0.09837983548641205,0.3668877184391022,-0.9250485301017761,0,0,0,-1,-1
2022-06-08T09:19:37.297+01:00,3969.645169041667,0.6647491455078125,0.145263671875,-0.2057647705078125,3969.630246041667,2.473028371166369,0.1059527372544226,-0.37566122384265,-4.058962345123291,-0.3469141125679016,2.506894826889038,0.529702365398407,-0.3739983141422272,0.5728451609611511,XArbitraryZVertical,-0.1103186217624097,-0.1590771242592955,0.9234853114247566,0.331208577276249,0.09837983548641205,0.3668877184391022,-0.9250485301017761,0,0,0,-1,-1
2022-06-08T09:19:37.311+01:00,3969.660062041667,0.6626739501953125,0.2817230224609375,-0.1224365234375,3969.650144041667,2.542941171569473,0.127042704002194,-0.4578767815470962,-4.863630294799805,-0.3662250638008118,2.903643131256104,0.5510989427566528,-0.296780914068222,0.6839993596076965,XArbitraryZVertical,-0.1258587491775495,-0.1981855434364618,0.9244786875393836,0.3003683528140079,0.1136501356959343,0.442044585943222,-0.889764130115509,0,0,0,-1,-1
2022-06-08T09:19:37.326+01:00,3969.674985041667,0.702911376953125,0.4071044921875,-0.10906982421875,3969.670010041667,2.630561182297032,0.1631354821237573,-0.5497570385038291,-5.400223731994629,-0.242218017578125,3.376270055770874,0.535163402557373,-0.2014809250831604,0.7285988330841064,XArbitraryZVertical,-0.1442468428353724,-0.2419245151962005,0.9225245159174744,0.2638445626816566,0.1384815573692322,0.5224800705909729,-0.8413307666778564,0,0,0,-1,-1
2022-06-08T09:19:37.342+01:00,3969.689908041667,0.74432373046875,0.577056884765625,-0.199920654296875,3969.670010041667,2.630561182297032,0.1631354821237573,-0.5497570385038291,-5.400223731994629,-0.242218017578125,3.376270055770874,0.535163402557373,-0.2014809250831604,0.7285988330841064,XArbitraryZVertical,-0.1442468428353724,-0.2419245151962005,0.9225245159174744,0.2638445626816566,0.1384815573692322,0.5224800705909729,-0.8413307666778564,0,0,0,-1,-1
2022-06-08T09:19:37.356+01:00,3969.704831041667,0.7678070068359375,0.684173583984375,-0.261199951171875,3969.689908041667,2.738322711862174,0.2203218015733873,-0.6451274400367967,-5.709342479705811,-0.1432159543037415,3.5710129737854,0.5547944307327271,-0.08431720733642578,0.6085201501846313,XArbitraryZVertical,-0.1652568725894672,-0.2878123123198895,0.9165991131043051,0.2229355105027092,0.1746214330196381,0.6013002991676331,-0.7797085046768188,0,0,0,-1,-1
2022-06-08T09:19:37.371+01:00,3969.719754041667,0.7873992919921875,0.8156890869140625,-0.293914794921875,3969.709805041667,2.868895615254533,0.3014623170604003,-0.7374903845331894,-5.800307273864746,-0.1054540351033211,3.829545259475708,0.5480414032936096,0.011741042137146,0.4455797672271729,XArbitraryZVertical,-0.1872058242599426,-0.3340121498746701,0.9062880137017585,0.1789744058673801,0.2197655439376831,0.672432541847229,-0.7067797183990479,0,0,0,-1,-1
2022-06-08T09:19:37.386+01:00,3969.734647041667,0.7679290771484375,0.97564697265625,-0.275115966796875,3969.729672041667,3.029508677033463,0.4125448602699099,-0.8172918008785921,-5.810402393341064,-0.06907061487436295,4.145620822906494,0.5112594366073608,0.1530591249465942,0.3489190340042114,XArbitraryZVertical,-0.2094391317744839,-0.3778052721779193,0.8922376250426569,0.131569019255601,0.2743239998817444,0.729295551776886,-0.6267968416213989,0,0,0,-1,-1
2022-06-08T09:19:37.401+01:00,3969.749570041667,0.740631103515625,0.8219757080078125,-0.294281005859375,3969.729672041667,3.029508677033463,0.4125448602699099,-0.8172918008785921,-5.810402393341064,-0.06907061487436295,4.145620822906494,0.5112594366073608,0.1530591249465942,0.3489190340042114,XArbitraryZVertical,-0.2094391317744839,-0.3778052721779193,0.8922376250426569,0.131569019255601,0.2743239998817444,0.729295551776886,-0.6267968416213989,0,0,0,-1,-1
2022-06-08T09:19:37.416+01:00,3969.764493041667,0.7620697021484375,0.671356201171875,-0.3946075439453125,3969.749570041667,-3.053829345596796,0.5612669379891717,-0.8827008369622142,-6.190413475036621,-0.1420790702104568,4.540243625640869,0.4133376479148865,0.1247140765190125,0.2421191930770874,XArbitraryZVertical,-0.232177919295013,-0.4210408030143044,0.8731580242997312,0.08008211068899231,0.3380203545093536,0.7724568843841553,-0.5376361012458801,0,0,0,-1,-1
2022-06-08T09:19:37.432+01:00,3969.779416041667,0.9213104248046875,0.8607635498046875,-0.4586181640625,3969.769467041667,-2.804220979961435,0.7517724607113163,-0.9268747475115732,-6.768861770629883,-0.4874505996704102,4.974250793457031,0.3520792126655579,-0.128391444683075,0.04392588138580322,XArbitraryZVertical,-0.2539051897782867,-0.4650434973678153,0.8478084741003334,0.02207912965002558,0.4099904298782349,0.79974764585495,-0.4385333955287933,0,0,0,-1,-1
2022-06-08T09:19:37.446+01:00,3969.794309041667,1.101654052734375,1.32171630859375,-0.5018463134765625,3969.789334041667,-2.517649029163879,0.9689741050742666,-0.9447135096318846,-7.352901458740234,-0.9401178359985352,4.685282230377197,0.5104010105133057,0.1927531361579895,-0.1461581587791443,XArbitraryZVertical,-0.2711539522013683,-0.5104918897041912,0.8150205967135268,-0.04018698255311029,0.4830223619937897,0.8103290796279907,-0.3317471146583557,0,0,0,-1,-1
2022-06-08T09:19:37.461+01:00,3969.809232041667,1.12408447265625,1.772872924804688,-0.5041046142578125,3969.809232041667,-2.21967802434306,1.185708121625053,-0.9397642322256597,-7.820761680603027,-1.524735331535339,4.049801349639893,0.5946317315101624,0.8546597361564636,-0.3002611398696899,XArbitraryZVertical,-0.2791493390090453,-0.5579118852291721,0.7748137122335438,-0.1023404408520572,0.5467713475227356,0.8074190020561218,-0.2216199487447739,0,0,0,-1,-1
2022-06-08T09:19:37.476+01:00,3969.824150375,0.9281463623046875,1.769210815429688,-0.3017730712890625,3969.809232041667,-2.21967802434306,1.185708121625053,-0.9397642322256597,-7.820761680603027,-1.524735331535339,4.049801349639893,0.5946317315101624,0.8546597361564636,-0.3002611398696899,XArbitraryZVertical,-0.2791493390090453,-0.5579118852291721,0.7748137122335438,-0.1023404408520572,0.5467713475227356,0.8074190020561218,-0.2216199487447739,0,0,0,-1,-1
2022-06-08T09:19:37.491+01:00,3969.839073375,0.7227630615234375,1.697509765625,-0.0422821044921875,3969.829124375,-1.939228592738474,1.375437885441307,-0.9084755130618865,-7.446004867553711,-1.914604425430298,3.830718994140625,0.3248953223228455,0.9806434512138367,-0.1824004501104355,XArbitraryZVertical,-0.2786285417894364,-0.602229029219544,0.7301397055805404,-0.1630405060845447,0.6032509803771973,0.7885671854019165,-0.1193726658821106,0,0,0,-1,-1
2022-06-08T09:19:37.506+01:00,3969.853965375,0.5623016357421875,1.72955322265625,0.068572998046875,3969.848991375,-1.703698036690915,1.517521550876602,-0.8542701963311938,-6.799201011657715,-2.173036575317383,3.327332019805908,0.01432865858078003,0.945859432220459,0.035445686429739,XArbitraryZVertical,-0.2732300496454929,-0.6386383950228607,0.6847334151838694,-0.220514350792623,0.65583735704422,0.7540917992591858,-0.03497268259525299,0,0,0,-1,-1
2022-06-08T09:19:37.520+01:00,3969.868889375,0.4656524658203125,1.767684936523438,0.1051483154296875,3969.848991375,-1.703698036690915,1.517521550876602,-0.8542701963311938,-6.799201011657715,-2.173036575317383,3.327332019805908,0.01432865858078003,0.945859432220459,0.035445686429739,XArbitraryZVertical,-0.2732300496454929,-0.6386383950228607,0.6847334151838694,-0.220514350792623,0.65583735704422,0.7540917992591858,-0.03497268259525299,0,0,0,-1,-1
2022-06-08T09:19:37.535+01:00,3969.883812375,0.33734130859375,1.723129272460938,0.121429443359375,3969.868889375,-1.51842065203646,1.611374627917662,-0.7932797323355906,-5.683944702148438,-2.175450801849365,2.860893249511719,-0.2122563123703003,1.062397003173828,0.0866692066192627,XArbitraryZVertical,-0.2638723529973015,-0.6667837378769793,0.6418790414494531,-0.2715918121057089,0.7009342908859253,0.7126578688621521,0.02845834381878376,0,0,0,-1,-1
2022-06-08T09:19:37.550+01:00,3969.898735375,0.199432373046875,1.525985717773438,0.1414031982421875,3969.888786375,-1.383150935743278,1.659053436775197,-0.7324954597826182,-4.589118957519531,-2.425541877746582,2.595421314239502,-0.4032728672027588,1.054402112960815,0.05589473247528076,XArbitraryZVertical,-0.2529635174121128,-0.6846727786079789,0.605524721686575,-0.3171316552790563,0.7406141757965088,0.6687270998954773,0.06553471088409424,0,0,0,-1,-1
2022-06-08T09:19:37.565+01:00,3969.913627375,0.0800323486328125,1.292160034179688,0.17767333984375,3969.908683375,-1.280626540559283,1.677950965686257,-0.6748541059265368,-3.947219371795654,-2.354965686798096,2.367772102355957,-0.6188338994979858,0.8334838151931763,0.08469153195619583,XArbitraryZVertical,-0.2420110093557951,-0.6951141903563991,0.5742226627738046,-0.3584903710334766,0.7763199210166931,0.6247833967208862,0.08350612968206406,0,0,0,-1,-1
2022-06-08T09:19:37.580+01:00,3969.928550375,-0.1559906005859375,1.052841186523438,0.2822113037109375,3969.928550375,-1.18786554468012,1.687145428735116,-0.6237586236148878,-4.131691932678223,-2.292187929153442,2.017828226089478,-0.8703337907791138,0.5784617066383362,0.121731273829937,XArbitraryZVertical,-0.2288275451113142,-0.7033854703135157,0.5440569987522056,-0.3960918775966927,0.8062009811401367,0.5840901136398315,0.09422633051872253,0,0,0,-1,-1
2022-06-08T09:19:37.595+01:00,3969.943473375,-0.3583984375,0.9413299560546875,0.26202392578125,3969.928550375,-1.18786554468012,1.687145428735116,-0.6237586236148878,-4.131691932678223,-2.292187929153442,2.017828226089478,-0.8703337907791138,0.5784617066383362,0.121731273829937,XArbitraryZVertical,-0.2288275451113142,-0.7033854703135157,0.5440569987522056,-0.3960918775966927,0.8062009811401367,0.5840901136398315,0.09422633051872253,0,0,0,-1,-1
2022-06-08T09:19:37.611+01:00,3969.958397375,-0.566162109375,0.905548095703125,0.174072265625,3969.948448375,-1.093504594662765,1.69619346711554,-0.5760368458073977,-4.198206424713135,-2.156877994537354,1.694210767745972,-1.190441608428955,0.396625280380249,0.1571377515792847,XArbitraryZVertical,-0.2133993265163826,-0.7119717717690349,0.5117013443374875,-0.4309507843068334,0.8320430517196655,0.5447046160697937,0.1048861518502235,0,0,0,-1,-1
2022-06-08T09:19:37.625+01:00,3969.973289375,-0.6876983642578125,0.9853057861328125,-0.0399017333984375,3969.968345375,-1.008033595503357,1.700094305465251,-0.5380287518365058,-3.269674777984619,-2.033048629760742,1.15973174571991,-1.467748165130615,0.4104988574981689,-0.01291286945343018,XArbitraryZVertical,-0.1962026232732964,-0.7189335061231767,0.4821100984377489,-0.4606614494572576,0.851552426815033,0.5124442577362061,0.1107217147946358,0,0,0,-1,-1
2022-06-08T09:19:37.643+01:00,3969.988212375,-0.8272552490234375,0.90887451171875,-0.2576446533203125,3969.968345375,-1.008033595503357,1.700094305465251,-0.5380287518365058,-3.269674777984619,-2.033048629760742,1.15973174571991,-1.467748165130615,0.4104988574981689,-0.01291286945343018,XArbitraryZVertical,-0.1962026232732964,-0.7189335061231767,0.4821100984377489,-0.4606614494572576,0.851552426815033,0.5124442577362061,0.1107217147946358,0,0,0,-1,-1
2022-06-08T09:19:37.658+01:00,3970.003135375,-0.8774261474609375,0.9309844970703125,-0.3015899658203125,3969.988212375,-0.9549508414164389,1.687973750557382,-0.5136698208708937,-1.680164575576782,-1.870410203933716,0.6818616986274719,-1.645873665809631,0.4628925919532776,-0.3053284883499146,XArbitraryZVertical,-0.1822324237674638,-0.7195153332098031,0.4639402350313014,-0.4835787548941209,0.8649745583534241,0.4913767576217651,0.1018219441175461,0,0,0,-1,-1
2022-06-08T09:19:37.672+01:00,3970.018058375,-0.795989990234375,1.2291259765625,-0.1925048828125,3970.008110375,-0.9291508540749439,1.663035992021394,-0.5047673971820176,-0.8071732521057129,-1.897766947746277,-0.08798184990882874,-1.748992204666138,0.4473806023597717,-0.3822118043899536,XArbitraryZVertical,-0.1701818099710126,-0.7150867237579401,0.4572769317133715,-0.5005865983508335,0.871566116809845,0.4836038649082184,0.08062174171209335,0,0,0,-1,-1
2022-06-08T09:19:37.741+01:00,3970.032982375,-0.621734619140625,1.304977416992188,-0.031494140625,3970.028007375,-0.9112542383591717,1.63627888197053,-0.5168996495653964,-0.7672305703163147,-1.604917168617249,-1.240664482116699,-1.608993172645569,0.8195792436599731,-0.2061483860015869,XArbitraryZVertical,-0.1536091784795476,-0.7105263501975603,0.4583156426676479,-0.5113739708297321,0.8674923181533813,0.494187206029892,0.0568869486451149,0,0,0,-1,-1
2022-06-08T09:19:37.744+01:00,3970.047874375,-0.445556640625,1.091659545898438,0.1304473876953125,3970.028007375,-0.9112542383591717,1.63627888197053,-0.5168996495653964,-0.7672305703163147,-1.604917168617249,-1.240664482116699,-1.608993172645569,0.8195792436599731,-0.2061483860015869,XArbitraryZVertical,-0.1536091784795476,-0.7105263501975603,0.4583156426676479,-0.5113739708297321,0.8674923181533813,0.494187206029892,0.0568869486451149,0,0,0,-1,-1
2022-06-08T09:19:37.747+01:00,3970.062797375,-0.343414306640625,1.030105590820312,0.5580596923828125,3970.047874375,-0.884797026496408,1.622262292053435,-0.5480375456396542,-1.555294752120972,-1.179187536239624,-1.9435715675354,-1.3541579246521,0.6382884383201599,0.03313231095671654,XArbitraryZVertical,-0.1304091944900131,-0.710596998800502,0.4611450295485881,-0.5151606276605535,0.8524183034896851,0.5210132002830505,0.04390930384397507,0,0,0,-1,-1
2022-06-08T09:19:37.749+01:00,3970.077720375,-0.1841888427734375,1.52386474609375,1.159652709960938,3970.067772375,-0.8282749300493434,1.631614892378902,-0.5893973702243592,-2.870775938034058,-1.024756550788879,-2.474280118942261,-1.173153162002563,0.4742454290390015,0.5075337886810303,XArbitraryZVertical,-0.09821131113688353,-0.7180650821164696,0.4575170959539432,-0.5151847005044309,0.829738974571228,0.555860161781311,0.05052584782242775,0,0,0,-1,-1
2022-06-08T09:19:37.755+01:00,3970.092643375,0.2663421630859375,3.320480346679688,1.86138916015625,3970.087669375,-0.7655526149414446,1.660074568635115,-0.6409537015830629,-1.398839712142944,0.5631709694862366,-3.165286302566528,-0.9096922278404236,1.347703218460083,1.361153364181519,XArbitraryZVertical,-0.0643862006198741,-0.7290996555266759,0.4548676243693782,-0.5073099996196851,0.798333466053009,0.5979601144790649,0.07146377861499786,0,0,0,-1,-1
2022-06-08T09:19:37.760+01:00,3970.107536375,1.432769775390625,5.51470947265625,1.941131591796875,3970.087669375,-0.7655526149414446,1.660074568635115,-0.6409537015830629,-1.398839712142944,0.5631709694862366,-3.165286302566528,-0.9096922278404236,1.347703218460083,1.361153364181519,XArbitraryZVertical,-0.0643862006198741,-0.7290996555266759,0.4548676243693782,-0.5073099996196851,0.798333466053009,0.5979601144790649,0.07146377861499786,0,0,0,-1,-1
2022-06-08T09:19:37.775+01:00,3970.122459375,3.18994140625,7.023101806640625,2.160476684570312,3970.107536375,-0.7428497715246867,1.700903692813551,-0.7180146129107146,0.09410019963979721,1.876530051231384,-4.837235927581787,0.220430314540863,4.187720775604248,1.867347955703735,XArbitraryZVertical,-0.03943087920202228,-0.7397971969223948,0.4702070262198559,-0.4796359187429348,0.7467479705810547,0.6578907370567322,0.09770937263965607,0,0,0,-1,-1
2022-06-08T09:19:37.789+01:00,3970.137382375,3.873062133789062,6.507644653320312,2.82025146484375,3970.127433375,-0.717590378367118,1.761062377891727,-0.8475756327886231,0.300051748752594,2.633731842041016,-8.602113723754883,2.540081739425659,6.273423671722412,2.035316467285156,XArbitraryZVertical,-0.001644199965017371,-0.7500515921362753,0.5006983008864008,-0.4321123301387011,0.649859607219696,0.7496781349182129,0.1251601874828339,0,0,0,-1,-1
2022-06-08T09:19:37.804+01:00,3970.152305375,2.4696044921875,4.8531494140625,2.91510009765625,3970.147331375,-0.6643969465848367,1.87163549900622,-1.04318053029352,1.152404308319092,4.174604415893555,-10.67220115661621,2.958651304244995,5.166828155517578,2.870172739028931,XArbitraryZVertical,0.05174630538003661,-0.7562523513558695,0.5469298537700998,-0.3553484186201429,0.480862945318222,0.8640099167823792,0.1491906046867371,0,0,0,-1,-1
2022-06-08T09:19:37.846+01:00,3970.167198375,2.186614990234375,3.480697631835938,2.3271484375,3970.167198375,-0.4952558928126707,2.130740678735272,-1.245603122608622,0.7681975960731506,6.2321457862854,-10.68393230438232,1.865102410316467,2.901211738586426,2.401823282241821,XArbitraryZVertical,0.09961978746151556,-0.7582369529157637,0.5912053960469359,-0.2561813377784923,0.2707008123397827,0.9475890398025513,0.1696947515010834,0,0,0,-1,-1
2022-06-08T09:19:37.859+01:00,3970.182121375,2.52227783203125,2.278594970703125,1.41607666015625,3970.167198375,-0.4952558928126707,2.130740678735272,-1.245603122608622,0.7681975960731506,6.2321457862854,-10.68393230438232,1.865102410316467,2.901211738586426,2.401823282241821,XArbitraryZVertical,0.09961978746151556,-0.7582369529157637,0.5912053960469359,-0.2561813377784923,0.2707008123397827,0.9475890398025513,0.1696947515010834,0,0,0,-1,-1
2022-06-08T09:19:37.911+01:00,3970.197044375,2.617294311523438,0.7311553955078125,0.7244110107421875,3970.187095375,0.1296967061806984,2.876550528526714,-1.387997483541589,0.9457657933235168,7.407936573028564,-9.766047477722168,2.474660158157349,1.2952561378479,1.240642309188843,XArbitraryZVertical,0.1337139462037024,-0.7548759766800915,0.6260933861243048,-0.1424423279851653,0.04761774837970734,0.9833387732505798,0.1754343211650848,0,0,0,-1,-1
2022-06-08T09:19:37.925+01:00,3970.211967375,2.208984375,0.0579376220703125,0.3163604736328125,3970.206993375,1.07544832439399,-2.327187262712177,-1.356053610653613,1.094017624855042,7.415441036224365,-8.506789207458496,2.680790901184082,-0.5835071802139282,0.4349137544631958,XArbitraryZVertical,0.1529148808521295,-0.7414451344679158,0.6526644002862803,-0.03008721127645389,-0.154988169670105,0.9770312309265137,0.1462476998567581,0,0,0,-1,-1
2022-06-08T09:19:37.944+01:00,3970.226860375,1.886856079101562,-0.302001953125,-0.094940185546875,3970.206993375,1.07544832439399,-2.327187262712177,-1.356053610653613,1.094017624855042,7.415441036224365,-8.506789207458496,2.680790901184082,-0.5835071802139282,0.4349137544631958,XArbitraryZVertical,0.1529148808521295,-0.7414451344679158,0.6526644002862803,-0.03008721127645389,-0.154988169670105,0.9770312309265137,0.1462476998567581,0,0,0,-1,-1
2022-06-08T09:19:37.958+01:00,3970.241783375,1.9830322265625,-1.596160888671875,-0.504119873046875,3970.226860375,1.40800764902584,-1.86448295726889,-1.232615637931824,0.4877451956272125,6.799978733062744,-6.354892730712891,2.251937866210938,-1.058990955352783,-0.03551054745912552,XArbitraryZVertical,0.1614969117008073,-0.7224540116705714,0.6686056847425326,0.07032300596487263,-0.3175657689571381,0.9433597922325134,0.09604210406541824,0,0,0,-1,-1
2022-06-08T09:19:37.978+01:00,3970.256706375,1.821243286132812,-2.680267333984375,-0.8512115478515625,3970.246757375,1.464126252663645,-1.686667357920449,-1.146341597334893,-0.2290531098842621,5.75826358795166,-2.428487539291382,2.392094612121582,-2.507424354553223,-0.5517315864562988,XArbitraryZVertical,0.151202408847731,-0.7077737659485721,0.6746960962492584,0.1448421697672072,-0.4090623259544373,0.9112634062767029,0.04761174321174622,0,0,0,-1,-1
2022-06-08T09:19:37.985+01:00,3970.271629375,1.231109619140625,-5.105499267578125,-1.860244750976562,3970.266655375,1.411308330237034,-1.635332324674275,-1.134085178735074,-3.475754499435425,3.484644889831543,1.307310223579407,2.207679748535156,-4.018940925598145,-1.378946661949158,XArbitraryZVertical,0.1194556455265624,-0.7066604530018574,0.6724169240774233,0.1849777662828478,-0.422080934047699,0.9061475992202759,0.02727729454636574,0,0,0,-1,-1
2022-06-08T09:19:37.991+01:00,3970.286552375,0.631195068359375,-3.561447143554688,-0.634185791015625,3970.266655375,1.411308330237034,-1.635332324674275,-1.134085178735074,-3.475754499435425,3.484644889831543,1.307310223579407,2.207679748535156,-4.018940925598145,-1.378946661949158,XArbitraryZVertical,0.1194556455265624,-0.7066604530018574,0.6724169240774233,0.1849777662828478,-0.422080934047699,0.9061475992202759,0.02727729454636574,0,0,0,-1,-1
2022-06-08T09:19:37.996+01:00,3970.301445375,3.13427734375,-0.43218994140625,-0.2322998046875,3970.286552375,1.072693134440172,-1.889896784389676,-1.185950897201828,-6.776562213897705,3.349925518035889,6.307235240936279,0.6526676416397095,-5.245963573455811,-1.248799800872803,XArbitraryZVertical,0.06205714560757809,-0.7450068597827749,0.6375496705272511,0.1861291220689906,-0.3564639687538147,0.9268564581871033,0.1177726238965988,0,0,0,-1,-1
2022-06-08T09:19:38.005+01:00,3970.316368375,1.461029052734375,-0.8585662841796875,-0.3333282470703125,3970.306419375,0.7727022873889265,-2.130581007129495,-1.285243955127474,1.655662178993225,0.6868205070495605,6.330795764923096,3.372970104217529,-1.391696453094482,-0.3818766176700592,XArbitraryZVertical,-0.00489759362035393,-0.7581321734150364,0.6317659937114061,0.161502890005797,-0.2386928051710129,0.9595062136650085,0.1495767533779144,0,0,0,-1,-1
2022-06-08T09:19:38.011+01:00,3970.331291375,1.415878295898438,-1.291275024414062,-0.474853515625,3970.326317375,0.6386057271504383,-2.236564663049672,-1.430506216363119,2.707279443740845,1.523331046104431,7.301392555236816,1.348584771156311,-2.139040470123291,-0.4431486129760742,XArbitraryZVertical,-0.0591204029357075,-0.734634999383754,0.6636024544553925,0.1282492459190861,-0.1099678799510002,0.9901754856109619,0.08636760711669922,0,0,0,-1,-1
2022-06-08T09:19:38.016+01:00,3970.346214375,1.891937255859375,-0.3270416259765625,-0.24505615234375,3970.326317375,0.6386057271504383,-2.236564663049672,-1.430506216363119,2.707279443740845,1.523331046104431,7.301392555236816,1.348584771156311,-2.139040470123291,-0.4431486129760742,XArbitraryZVertical,-0.0591204029357075,-0.734634999383754,0.6636024544553925,0.1282492459190861,-0.1099678799510002,0.9901754856109619,0.08636760711669922,0,0,0,-1,-1
2022-06-08T09:19:38.021+01:00,3970.361107375,2.288360595703125,0.8947296142578125,-0.074462890625,3970.346214375,-0.9555445949434359,2.476537128482343,-1.501505038300383,1.279233813285828,0.4776890575885773,7.993781089782715,1.660796761512756,-1.813350558280945,-0.3976496458053589,XArbitraryZVertical,-0.1200267687709789,-0.7161238253188931,0.6823589029368787,0.08453690628133027,0.04272488132119179,0.9976003170013428,0.05447951704263687,0,0,0,-1,-1
2022-06-08T09:19:38.028+01:00,3970.376030375,1.809219360351562,0.9842987060546875,0.331878662109375,3970.366081375,-1.886322944736424,1.553591719878312,-1.371492873510632,5.118639469146729,-0.07804848253726959,7.666938304901123,2.090403079986572,-0.08547502756118774,-0.0710567831993103,XArbitraryZVertical,-0.1739372304283207,-0.6841365218804258,0.7074356543337091,0.03518391806236289,0.1979575902223587,0.980204701423645,-0.003406118601560593,0,0,0,-1,-1
2022-06-08T09:19:38.043+01:00,3970.390953375,1.633224487304688,0.2294464111328125,0.5283660888671875,3970.385978375,-2.253342318334312,1.208433159388488,-1.199196521354213,7.509358882904053,0.9825156927108765,7.201784610748291,1.316936492919922,-0.1593935489654541,0.5652087330818176,XArbitraryZVertical,-0.2239786417783219,-0.6208668670770204,0.7512336917500166,-0.002421165789927356,0.339527040719986,0.9317476153373718,-0.1287157982587814,0,0,0,-1,-1
2022-06-08T09:19:38.104+01:00,3970.405876375,1.996292114257812,-0.0447235107421875,0.4695587158203125,3970.385978375,-2.253342318334312,1.208433159388488,-1.199196521354213,7.509358882904053,0.9825156927108765,7.201784610748291,1.316936492919922,-0.1593935489654541,0.5652087330818176,XArbitraryZVertical,-0.2239786417783219,-0.6208668670770204,0.7512336917500166,-0.002421165789927356,0.339527040719986,0.9317476153373718,-0.1287157982587814,0,0,0,-1,-1
2022-06-08T09:19:38.115+01:00,3970.420768375,2.397140502929688,0.2114105224609375,0.1025848388671875,3970.405876375,-2.407113213058253,1.098564620879845,-1.012476765022349,6.223201274871826,1.72270941734314,7.062906742095947,1.397022843360901,-0.8982564806938171,0.7481620907783508,XArbitraryZVertical,-0.2776630911536637,-0.5499232620140795,0.78707834507651,-0.03154694054085386,0.471781998872757,0.8481465578079224,-0.2409752309322357,0,0,0,-1,-1
2022-06-08T09:19:38.159+01:00,3970.435692375,2.957290649414062,0.8367767333984375,-0.74871826171875,3970.425743375,-2.460984355296686,1.087070358092418,-0.8344977740530352,4.809682846069336,1.453819036483765,7.351611137390137,1.80263876914978,-0.5295488238334656,0.414909839630127,XArbitraryZVertical,-0.3299148298199515,-0.4847615028273327,0.8075376775575537,-0.06360281067452256,0.5945016741752625,0.7409593462944031,-0.3123249709606171,0,0,0,-1,-1
2022-06-08T09:19:38.165+01:00,3970.450615375,3.618911743164062,2.619415283203125,-1.935073852539062,3970.445640375,-2.456298427828283,1.111552241429935,-0.6794022307518396,1.116863012313843,0.8195062875747681,6.290910720825195,2.535169839859009,0.7998640537261963,-0.8383553028106689,XArbitraryZVertical,-0.3734336829177364,-0.4337354387604945,0.8134518483630094,-0.1035226462064845,0.6973435282707214,0.6283280849456787,-0.3448417186737061,0,0,0,-1,-1
2022-06-08T09:19:38.170+01:00,3970.465538375,3.235992431640625,3.047805786132812,-1.512771606445312,3970.445640375,-2.456298427828283,1.111552241429935,-0.6794022307518396,1.116863012313843,0.8195062875747681,6.290910720825195,2.535169839859009,0.7998640537261963,-0.8383553028106689,XArbitraryZVertical,-0.3734336829177364,-0.4337354387604945,0.8134518483630094,-0.1035226462064845,0.6973435282707214,0.6283280849456787,-0.3448417186737061,0,0,0,-1,-1
2022-06-08T09:19:38.174+01:00,3970.480430375,3.207809448242188,3.27215576171875,-0.9373016357421875,3970.465538375,-2.385455202225007,1.16371934366863,-0.5825662168221936,-1.394015789031982,0.2226250320672989,5.208867073059082,2.654846668243408,2.419130563735962,-1.56267511844635,XArbitraryZVertical,-0.4006893480921718,-0.417298419377064,0.8019945719435013,-0.1487105416533956,0.7668147087097168,0.5501686930656433,-0.330620139837265,0,0,0,-1,-1
2022-06-08T09:19:38.180+01:00,3970.495353375,2.917739868164062,3.198394775390625,-1.38360595703125,3970.485405375,-2.302031516241796,1.2026285071795,-0.5216872747674611,-3.323768615722656,-0.7426329851150513,2.934328317642212,2.398927688598633,2.773812055587769,-0.6252699494361877,XArbitraryZVertical,-0.4124626053587271,-0.4169637293222498,0.7869908147719369,-0.1914713828800242,0.8088818192481995,0.4983436763286591,-0.3120316863059998,0,0,0,-1,-1
2022-06-08T09:19:38.185+01:00,3970.510276375,2.015899658203125,3.332778930664062,-1.278762817382812,3970.505302375,-2.191651291241608,1.231576052427255,-0.506456633886844,-4.735796451568604,-1.795501351356506,1.939760088920593,1.815377950668335,2.685359001159668,-1.113269925117493,XArbitraryZVertical,-0.4037573060758491,-0.4375950886570349,0.768981623745949,-0.2327183005818011,0.824636697769165,0.4850817322731018,-0.2909811437129974,0,0,0,-1,-1
2022-06-08T09:19:38.189+01:00,3970.525200375,1.124893188476562,3.031875610351562,-1.065994262695312,3970.505302375,-2.191651291241608,1.231576052427255,-0.506456633886844,-4.735796451568604,-1.795501351356506,1.939760088920593,1.815377950668335,2.685359001159668,-1.113269925117493,XArbitraryZVertical,-0.4037573060758491,-0.4375950886570349,0.768981623745949,-0.2327183005818011,0.824636697769165,0.4850817322731018,-0.2909811437129974,0,0,0,-1,-1
2022-06-08T09:19:38.195+01:00,3970.540092375,0.569183349609375,2.365936279296875,-0.7806854248046875,3970.525200375,-2.085382199493744,1.240620681293311,-0.5068762914853304,-3.980698823928833,-2.41911792755127,1.119803428649902,0.5501856803894043,2.715616464614868,-0.8476892709732056,XArbitraryZVertical,-0.3832501469780483,-0.4597791953505294,0.7538334257889044,-0.2710307919679225,0.8270421624183655,0.4854486584663391,-0.2834448218345642,0,0,0,-1,-1
2022-06-08T09:19:38.207+01:00,3970.555015375,0.124542236328125,1.597824096679688,-0.486541748046875,3970.545067375,-2.002512724808743,1.228774922477119,-0.5138658220979152,-3.234014272689819,-2.833529710769653,0.7499862313270569,-0.2512266039848328,1.874388813972473,-0.4886089563369751,XArbitraryZVertical,-0.3575566767492844,-0.4755154987998204,0.7445457739903526,-0.3028032457398827,0.820409893989563,0.4915474653244019,-0.2920764684677124,0,0,0,-1,-1
2022-06-08T09:19:38.225+01:00,3970.569938375,-0.185821533203125,1.10040283203125,-0.25689697265625,3970.564964375,-1.926102050777724,1.20760474904517,-0.5226049044215594,-3.44183611869812,-3.026211500167847,0.6604095697402954,-0.8012229800224304,0.8933932781219482,-0.09444263577461243,XArbitraryZVertical,-0.3288540061217359,-0.4877858304099629,0.7365979566275512,-0.3336815916921902,0.8099966645240784,0.4991390407085419,-0.3078400492668152,0,0,0,-1,-1
2022-06-08T09:19:38.238+01:00,3970.584861375,-0.36920166015625,0.8249359130859375,-0.0665130615234375,3970.584861375,-1.844506528661586,1.189768323090799,-0.5394727116060658,-3.716087579727173,-2.879081249237061,0.3526650965213776,-1.108489990234375,0.4037967920303345,0.1752470731735229,XArbitraryZVertical,-0.2971710538225419,-0.5021541563833575,0.7263935718919561,-0.3631569081971808,0.7964478135108948,0.5136836767196655,-0.3190611302852631,0,0,0,-1,-1
2022-06-08T09:19:38.252+01:00,3970.599785375,-0.5735015869140625,0.4702301025390625,0.0936279296875,3970.584861375,-1.844506528661586,1.189768323090799,-0.5394727116060658,-3.716087579727173,-2.879081249237061,0.3526650965213776,-1.108489990234375,0.4037967920303345,0.1752470731735229,XArbitraryZVertical,-0.2971710538225419,-0.5021541563833575,0.7263935718919561,-0.3631569081971808,0.7964478135108948,0.5136836767196655,-0.3190611302852631,0,0,0,-1,-1
2022-06-08T09:19:38.266+01:00,3970.614677375,-0.8037567138671875,0.1028900146484375,0.0230560302734375,3970.604728375,-1.75898817665786,1.180119177380585,-0.5624109865777448,-4.12217903137207,-2.635691165924072,0.2896344065666199,-1.355730772018433,-0.06299728155136108,0.4157864451408386,XArbitraryZVertical,-0.2648208554807908,-0.5184502595144497,0.7134447313534775,-0.3899689831361213,0.7822291254997253,0.5332273840904236,-0.3221584856510162,0,0,0,-1,-1
2022-06-08T09:19:38.281+01:00,3970.629600375,-0.999298095703125,-0.085968017578125,-0.1271514892578125,3970.624626375,-1.654256713336879,1.1862551255105,-0.5941572684404639,-5.165865898132324,-2.516501426696777,0.05319241061806679,-1.651590824127197,-0.5494194030761719,0.2798072695732117,XArbitraryZVertical,-0.2290408809881329,-0.5404798443503004,0.6943188297493224,-0.4163449262250639,0.7681068778038025,0.5598106384277344,-0.3108436167240143,0,0,0,-1,-1
2022-06-08T09:19:38.297+01:00,3970.644523375,-1.036468505859375,-0.2020263671875,-0.2090301513671875,3970.644523375,-1.535489868364009,1.204098579098935,-0.6330837562161211,-5.196840763092041,-2.555056810379028,-0.07275182008743286,-1.782499313354492,-0.7392320036888123,0.1039335131645203,XArbitraryZVertical,-0.1892015437499366,-0.5653991696802042,0.6708006999988382,-0.4410815094240553,0.7526072859764099,0.5916337370872498,-0.2890531122684479,0,0,0,-1,-1
2022-06-08T09:19:38.311+01:00,3970.659446375,-1.073715209960938,-0.331207275390625,-0.2268218994140625,3970.644523375,-1.535489868364009,1.204098579098935,-0.6330837562161211,-5.196840763092041,-2.555056810379028,-0.07275182008743286,-1.782499313354492,-0.7392320036888123,0.1039335131645203,XArbitraryZVertical,-0.1892015437499366,-0.5653991696802042,0.6708006999988382,-0.4410815094240553,0.7526072859764099,0.5916337370872498,-0.2890531122684479,0,0,0,-1,-1
2022-06-08T09:19:38.326+01:00,3970.674339375,-1.162567138671875,-0.3581390380859375,-0.0951080322265625,3970.664390375,-1.418600865470235,1.224342892381608,-0.6715393732158836,-4.952569484710693,-2.540273427963257,-0.362364262342453,-1.810064554214478,-0.9533991813659668,0.0390109121799469,XArbitraryZVertical,-0.1487454642924629,-0.5873315933348946,0.6469391637206235,-0.4630184033510155,0.7363492250442505,0.622191846370697,-0.265832781791687,0,0,0,-1,-1
2022-06-08T09:19:38.341+01:00,3970.689262375,-1.330093383789062,-0.43597412109375,-0.02008056640625,3970.684288375,-1.30444008801416,1.248917738434211,-0.713746278344894,-4.674087524414062,-2.282266139984131,-0.6586136817932129,-1.924429416656494,-1.033454418182373,0.1926547288894653,XArbitraryZVertical,-0.1072586836629043,-0.6073953163874058,0.6237070108270131,-0.4801625653494981,0.7170929908752441,0.654670238494873,-0.2391330152750015,0,0,0,-1,-1
2022-06-08T09:19:38.356+01:00,3970.704185375,-1.578781127929688,-0.3961944580078125,-0.173248291015625,3970.684288375,-1.30444008801416,1.248917738434211,-0.713746278344894,-4.674087524414062,-2.282266139984131,-0.6586136817932129,-1.924429416656494,-1.033454418182373,0.1926547288894653,XArbitraryZVertical,-0.1072586836629043,-0.6073953163874058,0.6237070108270131,-0.4801625653494981,0.7170929908752441,0.654670238494873,-0.2391330152750015,0,0,0,-1,-1
2022-06-08T09:19:38.371+01:00,3970.719108375,-1.79083251953125,-0.131622314453125,-0.4171600341796875,3970.704185375,-1.202675629411186,1.273919858306123,-0.7497211564392844,-3.453673124313354,-2.083311557769775,-0.421984076499939,-2.191561937332153,-1.116539120674133,0.1341592222452164,XArbitraryZVertical,-0.07040351744892873,-0.622891123793224,0.602789690234653,-0.4936542295377564,0.6998627185821533,0.681434690952301,-0.2140999883413315,0,0,0,-1,-1
2022-06-08T09:19:38.386+01:00,3970.734001375,-1.819808959960938,0.152801513671875,-0.424072265625,3970.724083375,-1.146908920200078,1.269941482232473,-0.7692650908270046,-0.8709020614624023,-2.233792304992676,-0.2912166118621826,-2.476985454559326,-0.8272298574447632,-0.2042651772499084,XArbitraryZVertical,-0.04453516264341943,-0.6257549047778477,0.5918366826539582,-0.5061389671716203,0.6861529946327209,0.6956074237823486,-0.2128948420286179,0,0,0,-1,-1
2022-06-08T09:19:38.401+01:00,3970.748924375,-1.64764404296875,0.110595703125,-0.2847137451171875,3970.743950375,-1.16073494239131,1.215793531143879,-0.7732549963074767,1.402880430221558,-2.160444974899292,-0.3523989021778107,-2.466259956359863,-0.5268985629081726,-0.1380890011787415,XArbitraryZVertical,-0.03122237127168658,-0.6120860092789028,0.5969710611969263,-0.5176885096041683,0.6710174679756165,0.6984683275222778,-0.2487517595291138,0,0,0,-1,-1
2022-06-08T09:19:38.416+01:00,3970.763847375,-1.428482055664062,0.13848876953125,0.054901123046875,3970.743950375,-1.16073494239131,1.215793531143879,-0.7732549963074767,1.402880430221558,-2.160444974899292,-0.3523989021778107,-2.466259956359863,-0.5268985629081726,-0.1380890011787415,XArbitraryZVertical,-0.03122237127168658,-0.6120860092789028,0.5969710611969263,-0.5176885096041683,0.6710174679756165,0.6984683275222778,-0.2487517595291138,0,0,0,-1,-1
2022-06-08T09:19:38.431+01:00,3970.778770375,-1.400497436523438,0.5740966796875,0.491912841796875,3970.763847375,-1.197710682713567,1.150989943892238,-0.7677022571744733,0.6474094390869141,-1.66159462928772,-0.1309481710195541,-2.124362945556641,-0.6021223664283752,0.2220470607280731,XArbitraryZVertical,-0.02496682981508737,-0.5939248552288243,0.6068357793966449,-0.527617577462707,0.6570318937301636,0.6944838166236877,-0.293259859085083,0,0,0,-1,-1
2022-06-08T09:19:38.445+01:00,3970.793663375,-1.152069091796875,1.207977294921875,0.7195281982421875,3970.783744375,-1.164801558073062,1.150907400403299,-0.7797655389601538,-3.709509611129761,-0.7514760494232178,0.035872433334589,-2.049807548522949,-0.129016101360321,0.7817903757095337,XArbitraryZVertical,-0.01057157098415473,-0.5957763592801256,0.5995616090357456,-0.53428893697964,0.6493100523948669,0.7031127214431763,-0.2898775339126587,0,0,0,-1,-1
2022-06-08T09:19:38.460+01:00,3970.808586375,-0.2634429931640625,4.20635986328125,0.6657867431640625,3970.803611375,-1.011210533367957,1.2451437617862,-0.8159495342325146,-6.243862152099609,-0.8438687324523926,0.358663409948349,-1.613475322723389,1.063707113265991,0.7791585326194763,XArbitraryZVertical,0.02273618910041231,-0.6244034861360914,0.5635823121724172,-0.5403501210633519,0.6491655707359314,0.7283765077590942,-0.2192067056894302,0,0,0,-1,-1
2022-06-08T09:19:38.475+01:00,3970.823518125,2.12762451171875,8.599700927734375,1.354141235351562,3970.803611375,-1.011210533367957,1.2451437617862,-0.8159495342325146,-6.243862152099609,-0.8438687324523926,0.358663409948349,-1.613475322723389,1.063707113265991,0.7791585326194763,XArbitraryZVertical,0.02273618910041231,-0.6244034861360914,0.5635823121724172,-0.5403501210633519,0.6491655707359314,0.7283765077590942,-0.2192067056894302,0,0,0,-1,-1
2022-06-08T09:19:38.490+01:00,3970.838441125,4.963241577148438,9.724166870117188,1.027679443359375,3970.823518125,-0.9254942412726397,1.308145592599327,-0.8395296691303057,0.05101291835308075,0.2420884519815445,-1.883548259735107,0.4529443383216858,6.455438613891602,1.769445896148682,XArbitraryZVertical,0.0413919138367352,-0.6415534446528749,0.5454008571441061,-0.5378044633324025,0.6449102163314819,0.7443290948867798,-0.1733917742967606,0,0,0,-1,-1
2022-06-08T09:19:38.505+01:00,3970.853334125,4.406585693359375,6.985809326171875,1.918014526367188,3970.843415125,-1.02735586254748,1.240446700274046,-0.923953363314326,2.585464000701904,1.692392468452454,-7.794967174530029,4.393158435821533,8.926176071166992,1.223169803619385,XArbitraryZVertical,0.06023145660336432,-0.6313691487664944,0.5835723628725163,-0.5071374261145367,0.5700830221176147,0.7979904413223267,-0.1954903453588486,0,0,0,-1,-1
2022-06-08T09:19:38.520+01:00,3970.868257125,3.276519775390625,5.5360107421875,1.937835693359375,3970.863282125,-1.197706582897823,1.151777682429778,-1.079200416608184,0.6151421070098877,4.125320434570312,-9.456428527832031,3.489884376525879,5.535319805145264,2.272635221481323,XArbitraryZVertical,0.09257408208041189,-0.628811020873969,0.6367128779627208,-0.4366044321104137,0.4311971366405487,0.881580650806427,-0.1920534819364548,0,0,0,-1,-1
2022-06-08T09:19:38.535+01:00,3970.883180125,3.640884399414062,3.959823608398438,1.124893188476562,3970.883180125,-1.441412794761683,1.033034155995553,-1.246900287676238,0.486458420753479,6.353902339935303,-9.865140914916992,3.193500518798828,3.525370836257935,1.516381978988647,XArbitraryZVertical,0.1168461891053664,-0.6362683979276437,0.6825066960652219,-0.3401384749254647,0.273342102766037,0.9480026364326477,-0.163018986582756,0,0,0,-1,-1
2022-06-08T09:19:38.550+01:00,3970.898103125,3.946807861328125,2.661178588867188,0.788360595703125,3970.883180125,-1.441412794761683,1.033034155995553,-1.246900287676238,0.486458420753479,6.353902339935303,-9.865140914916992,3.193500518798828,3.525370836257935,1.516381978988647,XArbitraryZVertical,0.1168461891053664,-0.6362683979276437,0.6825066960652219,-0.3401384749254647,0.273342102766037,0.9480026364326477,-0.163018986582756,0,0,0,-1,-1
2022-06-08T09:19:38.565+01:00,3970.913026125,3.818695068359375,1.324813842773438,0.6745452880859375,3970.903077125,-2.054456086013481,0.5800974027454093,-1.384342892976199,1.547555685043335,7.822720050811768,-10.01761436462402,3.845202922821045,1.678510665893555,0.9434099197387695,XArbitraryZVertical,0.1278458461036875,-0.6372839108025715,0.7257803890314308,-0.2253163897950521,0.1016050055623055,0.982667863368988,-0.1550493091344833,0,0,0,-1,-1
2022-06-08T09:19:38.579+01:00,3970.927919125,3.442626953125,0.7269287109375,0.6020050048828125,3970.922944125,-3.105838971290445,-0.2954928715106768,-1.365964238374182,2.635204076766968,8.051353454589844,-9.171615600585938,3.750135898590088,0.08016997575759888,0.8609077334403992,XArbitraryZVertical,0.1253300293406489,-0.622092385262689,0.7654597737371163,-0.106605572534153,-0.0592331625521183,0.9790951609611511,-0.1945869028568268,0,0,0,-1,-1
2022-06-08T09:19:38.594+01:00,3970.942842125,3.2137451171875,-0.0855560302734375,0.4828948974609375,3970.922944125,-3.105838971290445,-0.2954928715106768,-1.365964238374182,2.635204076766968,8.051353454589844,-9.171615600585938,3.750135898590088,0.08016997575759888,0.8609077334403992,XArbitraryZVertical,0.1253300293406489,-0.622092385262689,0.7654597737371163,-0.106605572534153,-0.0592331625521183,0.9790951609611511,-0.1945869028568268,0,0,0,-1,-1
2022-06-08T09:19:38.610+01:00,3970.957765125,2.916168212890625,-1.289657592773438,0.529876708984375,3970.942842125,2.683282798081153,-0.6140443645024605,-1.239612609626479,2.355512380599976,7.882604598999023,-7.955899238586426,3.476764917373657,-0.7083534598350525,0.776490330696106,XArbitraryZVertical,0.1137958132701658,-0.5951208340278149,0.79552104278747,0.005291000498548363,-0.1873514950275421,0.9456580877304077,-0.2657634019851685,0,0,0,-1,-1
2022-06-08T09:19:38.624+01:00,3970.972688125,2.569046020507812,-1.957901000976562,0.431640625,3970.962739125,2.429805989696589,-0.695642871471656,-1.131222598547072,0.1605028808116913,7.478872299194336,-6.14775562286377,3.188896656036377,-2.19459080696106,0.8565495610237122,XArbitraryZVertical,0.09418253805404116,-0.5725322777480135,0.8076159159829269,0.1053232015190149,-0.2727285027503967,0.9049331545829773,-0.3266728818416595,0,0,0,-1,-1
2022-06-08T09:19:38.639+01:00,3970.987580125,2.401138305664062,-1.971099853515625,0.1292572021484375,3970.982606125,2.230921469209369,-0.7310956029529554,-1.082228364494469,-2.203177452087402,6.836211681365967,-3.926903486251831,2.806367158889771,-2.852534294128418,0.688829779624939,XArbitraryZVertical,0.06362322747276389,-0.5667852070536703,0.7999137766735253,0.1866667594320256,-0.3133861124515533,0.8830059170722961,-0.3494132161140442,0,0,0,-1,-1
2022-06-08T09:19:38.654+01:00,3971.002503125,2.253173828125,-2.119308471679688,-0.1602325439453125,3970.982606125,2.230921469209369,-0.7310956029529554,-1.082228364494469,-2.203177452087402,6.836211681365967,-3.926903486251831,2.806367158889771,-2.852534294128418,0.688829779624939,XArbitraryZVertical,0.06362322747276389,-0.5667852070536703,0.7999137766735253,0.1866667594320256,-0.3133861124515533,0.8830059170722961,-0.3494132161140442,0,0,0,-1,-1
2022-06-08T09:19:38.669+01:00,3971.017427125,2.003128051757812,-2.165435791015625,-0.2757720947265625,3971.002503125,2.060788793118028,-0.7532223759847275,-1.088246085760517,-3.51797342300415,5.928673267364502,-1.532975196838379,2.623735189437866,-2.944896459579468,0.2602950632572174,XArbitraryZVertical,0.02215541218961039,-0.5746767254073779,0.7801936309313809,0.2460764542255328,-0.3173998594284058,0.885814368724823,-0.33851158618927,0,0,0,-1,-1
2022-06-08T09:19:38.685+01:00,3971.032350125,1.715377807617188,-2.050064086914062,-0.3505096435546875,3971.022401125,1.939275701436345,-0.7570722313618301,-1.138369475981405,-3.727213859558105,4.551017284393311,1.059406995773315,2.290947675704956,-3.073387145996094,0.02883297204971313,XArbitraryZVertical,-0.02652714117293753,-0.5890617783203678,0.7581367115197837,0.2784444732813876,-0.2878195941448212,0.9079514145851135,-0.3046050667762756,0,0,0,-1,-1
2022-06-08T09:19:38.699+01:00,3971.047242125,1.612335205078125,-1.78424072265625,-0.379974365234375,3971.042268125,1.904773356074246,-0.7150461598879445,-1.222224559384517,-3.419002056121826,2.771116018295288,3.525046348571777,1.896839141845703,-2.905864953994751,-0.1413348317146301,XArbitraryZVertical,-0.07807262119293717,-0.6041163862516709,0.7415430848143146,0.2811794611791683,-0.2239418178796768,0.9398614764213562,-0.2578961253166199,0,0,0,-1,-1
2022-06-08T09:19:38.714+01:00,3971.062165125,1.586700439453125,-1.29754638671875,-0.2885589599609375,3971.042268125,1.904773356074246,-0.7150461598879445,-1.222224559384517,-3.419002056121826,2.771116018295288,3.525046348571777,1.896839141845703,-2.905864953994751,-0.1413348317146301,XArbitraryZVertical,-0.07807262119293717,-0.6041163862516709,0.7415430848143146,0.2811794611791683,-0.2239418178796768,0.9398614764213562,-0.2578961253166199,0,0,0,-1,-1
2022-06-08T09:19:38.729+01:00,3971.077088125,1.567779541015625,-0.969512939453125,-0.1557159423828125,3971.062165125,2.034847200711461,-0.5548063906786275,-1.324099342061738,-2.461324453353882,0.8014904260635376,5.52841854095459,1.700982451438904,-2.443921804428101,-0.1168597936630249,XArbitraryZVertical,-0.1269632923007817,-0.6165176611143016,0.7338458075268861,0.2554538047373979,-0.1286406069993973,0.9697242975234985,-0.2075725942850113,0,0,0,-1,-1
2022-06-08T09:19:38.744+01:00,3971.092012125,1.531646728515625,-0.9272613525390625,-0.0970916748046875,3971.082063125,2.564193402893519,-0.03554083465690187,-1.39923649500719,-1.545244336128235,-0.685171365737915,6.956238746643066,1.573845744132996,-1.954832553863525,0.01489579677581787,XArbitraryZVertical,-0.1702679189494471,-0.6210498966119961,0.7365667107093238,0.2068220290020618,-0.006066237576305866,0.9853196740150452,-0.1706117242574692,0,0,0,-1,-1
2022-06-08T09:19:38.759+01:00,3971.106904125,1.643203735351562,-0.765289306640625,-0.028076171875,3971.101960125,-2.883410802864748,0.7621264595087407,-1.372240734318334,-1.622162580490112,-1.796912670135498,7.911740303039551,1.414463520050049,-1.861761331558228,0.06573683023452759,XArbitraryZVertical,-0.2096471587233435,-0.6202456111292004,0.7425669552100765,0.1412008761247492,0.1361956596374512,0.980352520942688,-0.1426869034767151,0,0,0,-1,-1
2022-06-08T09:19:38.774+01:00,3971.121827125,1.817916870117188,-0.661956787109375,0.1014251708984375,3971.101960125,-2.883410802864748,0.7621264595087407,-1.372240734318334,-1.622162580490112,-1.796912670135498,7.911740303039551,1.414463520050049,-1.861761331558228,0.06573683023452759,XArbitraryZVertical,-0.2096471587233435,-0.6202456111292004,0.7425669552100765,0.1412008761247492,0.1361956596374512,0.980352520942688,-0.1426869034767151,0,0,0,-1,-1
2022-06-08T09:19:38.788+01:00,3971.136750125,2.206558227539062,-0.538299560546875,0.424713134765625,3971.121827125,-2.398579562015487,1.186958623211335,-1.251978332741369,-2.126174926757812,-2.754106760025024,8.751359939575195,1.451810598373413,-1.663809537887573,0.1647423505783081,XArbitraryZVertical,-0.2459668357011522,-0.6170986695135778,0.7449266321698075,0.06143126400374384,0.2906361818313599,0.9496065974235535,-0.1173790991306305,0,0,0,-1,-1
2022-06-08T09:19:38.804+01:00,3971.151673125,2.855361938476562,-0.4966888427734375,0.8165283203125,3971.141725125,-2.135809655257709,1.366869411925364,-1.090532932801652,-3.078240156173706,-3.466164350509644,9.730381965637207,1.754118919372559,-1.425172805786133,0.5182783007621765,XArbitraryZVertical,-0.2792223237149239,-0.612578412970662,0.7387299529746875,-0.03256684856155549,0.4524392783641815,0.8868732452392578,-0.09356516599655151,0,0,0,-1,-1
2022-06-08T09:19:38.818+01:00,3971.166597125,3.964691162109375,-0.323822021484375,0.7543182373046875,3971.161622125,-1.946969478733761,1.453817502013145,-0.8944276206910912,-4.012218475341797,-3.827549934387207,11.34520530700684,2.513017416000366,-1.284230351448059,0.9606004953384399,XArbitraryZVertical,-0.3137112501406822,-0.6041989477992005,0.7187236701614877,-0.1412975325930689,0.6216870546340942,0.7798509001731873,-0.07305776327848434,0,0,0,-1,-1
2022-06-08T09:19:38.833+01:00,3971.181489125,4.943893432617188,1.543045043945312,1.151336669921875,3971.181489125,-1.827186503492128,1.457423363259433,-0.6780835655767884,-1.013205289840698,-4.180984020233154,11.29239559173584,3.875240564346313,0.1084007620811462,1.060606837272644,XArbitraryZVertical,-0.3456145349417202,-0.5800853546395207,0.6923118330347271,-0.2544716576926592,0.773776650428772,0.6273016929626465,-0.08810315281152725,0,0,0,-1,-1
2022-06-08T09:19:38.848+01:00,3971.196412125,6.920257568359375,5.476974487304688,0.6080322265625,3971.181489125,-1.827186503492128,1.457423363259433,-0.6780835655767884,-1.013205289840698,-4.180984020233154,11.29239559173584,3.875240564346313,0.1084007620811462,1.060606837272644,XArbitraryZVertical,-0.3456145349417202,-0.5800853546395207,0.6923118330347271,-0.2544716576926592,0.773776650428772,0.6273016929626465,-0.08810315281152725,0,0,0,-1,-1
2022-06-08T09:19:38.863+01:00,3971.211335125,5.175537109375,5.19915771484375,0.7798919677734375,3971.201387125,-1.76952863406817,1.422338017273538,-0.4948704788474798,-2.409038543701172,-2.299686908721924,7.492846965789795,6.049907684326172,5.002057075500488,0.7382006645202637,XArbitraryZVertical,-0.3721296567251903,-0.544458728554,0.6696195007036539,-0.3416049844673029,0.870350182056427,0.4749176800251007,-0.1301684230566025,0,0,0,-1,-1
2022-06-08T09:19:38.878+01:00,3971.226258125,4.280670166015625,4.378952026367188,0.7305755615234375,3971.221284125,-1.687117731330728,1.422694019945017,-0.3864687592507945,-3.307777166366577,-1.343596220016479,4.44951868057251,3.819077491760254,4.346971988677979,1.041600704193115,XArbitraryZVertical,-0.3819099662867603,-0.5346079716482259,0.6386661676639618,-0.4005552368055272,0.9161059856414795,0.3769199848175049,-0.1366781890392303,0,0,0,-1,-1
2022-06-08T09:19:38.893+01:00,3971.241151125,2.746063232421875,4.436614990234375,0.59381103515625,3971.241151125,-1.618021146913903,1.43030953869856,-0.326519350228434,-1.744080662727356,-0.09819848835468292,2.799779176712036,2.361101865768433,4.17856502532959,0.7466862797737122,XArbitraryZVertical,-0.383484647840827,-0.5353747407950393,0.6126141109703164,-0.4370553208883642,0.9378329515457153,0.3207482397556305,-0.1326268166303635,0,0,0,-1,-1
2022-06-08T09:19:38.908+01:00,3971.256074125,1.569564819335938,3.334243774414062,0.43450927734375,3971.241151125,-1.618021146913903,1.43030953869856,-0.326519350228434,-1.744080662727356,-0.09819848835468292,2.799779176712036,2.361101865768433,4.17856502532959,0.7466862797737122,XArbitraryZVertical,-0.383484647840827,-0.5353747407950393,0.6126141109703164,-0.4370553208883642,0.9378329515457153,0.3207482397556305,-0.1326268166303635,0,0,0,-1,-1
2022-06-08T09:19:38.923+01:00,3971.270997125,0.86517333984375,2.5185546875,0.3630218505859375,3971.261048125,-1.587308808351329,1.44778288700142,-0.2798005244505442,-1.143872499465942,0.6473069787025452,2.07012152671814,0.6157169938087463,3.058079719543457,0.5524408221244812,XArbitraryZVertical,-0.3942944619733428,-0.5343838599800326,0.5936890388742315,-0.4544214781052587,0.9538475871086121,0.2761639356613159,-0.1179315373301506,0,0,0,-1,-1
2022-06-08T09:19:38.938+01:00,3971.285920125,0.312408447265625,2.101638793945312,0.174774169921875,3971.280946125,-1.547361806645435,1.469828060155013,-0.2558185745002473,-2.435041904449463,0.489033430814743,0.8652002811431885,-0.3065539002418518,2.106139183044434,0.4027533531188965,XArbitraryZVertical,-0.3970189148412044,-0.5418650445825499,0.5753616953710002,-0.4666016391693802,0.962529182434082,0.2530374228954315,-0.0975165069103241,0,0,0,-1,-1
2022-06-08T09:19:38.953+01:00,3971.300813125,-0.0352783203125,1.670150756835938,0.0065765380859375,3971.280946125,-1.547361806645435,1.469828060155013,-0.2558185745002473,-2.435041904449463,0.489033430814743,0.8652002811431885,-0.3065539002418518,2.106139183044434,0.4027533531188965,XArbitraryZVertical,-0.3970189148412044,-0.5418650445825499,0.5753616953710002,-0.4666016391693802,0.962529182434082,0.2530374228954315,-0.0975165069103241,0,0,0,-1,-1
2022-06-08T09:19:38.967+01:00,3971.315736125,-0.4104461669921875,1.236373901367188,-0.2451629638671875,3971.300813125,-1.48629949460429,1.492854032130227,-0.2523272417683716,-3.419791460037231,0.3079197406768799,0.002892623655498028,-0.8952648043632507,1.570761203765869,0.1397136449813843,XArbitraryZVertical,-0.3877620107914211,-0.5585174394628989,0.5556785997639015,-0.4784560972736228,0.9653942584991455,0.2496581822633743,-0.07539778202772141,0,0,0,-1,-1
2022-06-08T09:19:38.982+01:00,3971.330659125,-0.7949066162109375,0.9677276611328125,-0.601470947265625,3971.320710125,-1.410158366518261,1.516479750599389,-0.2628305027249337,-3.851704359054565,0.09690525382757187,-0.4411632120609283,-1.374680519104004,0.9765589833259583,-0.1927374601364136,XArbitraryZVertical,-0.3693613986450496,-0.5808264994506971,0.5351117645004293,-0.4897632771477499,0.9642342329025269,0.2598148882389069,-0.05242547020316124,0,0,0,-1,-1
2022-06-08T09:19:38.997+01:00,3971.345582125,-0.9839324951171875,0.8247222900390625,-0.880584716796875,3971.340608125,-1.338130344414823,1.533059327152243,-0.2761054989006201,-3.081307888031006,-0.4361612200737,-0.6081488132476807,-1.842558145523071,0.6344021558761597,-0.6876083612442017,XArbitraryZVertical,-0.3483834986594802,-0.6003993707264951,0.5174062618580814,-0.5004399728976713,0.961439311504364,0.2726107239723206,-0.03629906848073006,0,0,0,-1,-1
2022-06-08T09:19:39.012+01:00,3971.360475125,-1.072982788085938,0.859283447265625,-0.95220947265625,3971.340608125,-1.338130344414823,1.533059327152243,-0.2761054989006201,-3.081307888031006,-0.4361612200737,-0.6081488132476807,-1.842558145523071,0.6344021558761597,-0.6876083612442017,XArbitraryZVertical,-0.3483834986594802,-0.6003993707264951,0.5174062618580814,-0.5004399728976713,0.961439311504364,0.2726107239723206,-0.03629906848073006,0,0,0,-1,-1
2022-06-08T09:19:39.027+01:00,3971.375398125,-1.296630859375,0.8214263916015625,-0.919342041015625,3971.360475125,-1.281018280532963,1.532743063946854,-0.2950528815038239,-2.768976449966431,-1.197234869003296,-1.173676609992981,-1.997414946556091,0.5465813279151917,-0.9098889827728271,XArbitraryZVertical,-0.3250438398983029,-0.6133078078984926,0.5075929537108035,-0.5104403712753972,0.9560940265655518,0.2907904386520386,-0.03640006855130196,0,0,0,-1,-1
2022-06-08T09:19:39.042+01:00,3971.390321125,-1.750106811523438,0.6895294189453125,-0.6511688232421875,3971.380372125,-1.214056016143072,1.523016109150727,-0.3281729174623033,-3.932481288909912,-1.796696662902832,-1.811509013175964,-2.242183208465576,0.4991123676300049,-0.8741289377212524,XArbitraryZVertical,-0.2912067219974048,-0.6265716973884726,0.4999063272056529,-0.5222069030774809,0.9455522894859314,0.3223139941692352,-0.04521310701966286,0,0,0,-1,-1
2022-06-08T09:19:39.057+01:00,3971.405244125,-2.050765991210938,0.55523681640625,-0.5118560791015625,3971.400270125,-1.114104612398986,1.519159289094454,-0.3738933412251332,-5.69288158416748,-2.00676417350769,-2.294817924499512,-2.812118053436279,0.2815164625644684,-0.525651752948761,XArbitraryZVertical,-0.2433225906629555,-0.6455772754410426,0.4853211844724967,-0.5371102302367761,0.9296715259552002,0.3652425408363342,-0.04804819822311401,0,0,0,-1,-1
2022-06-08T09:19:39.074+01:00,3971.420137125,-2.115631103515625,0.535797119140625,-0.533172607421875,3971.420137125,-0.9838034520358484,1.530134289154207,-0.4290999975287446,-6.389753818511963,-1.973895072937012,-2.675189971923828,-3.023304462432861,0.1005489230155945,-0.4864262938499451,XArbitraryZVertical,-0.1842410822120397,-0.6690085939730952,0.46285165431609,-0.5515895375203912,0.9085888862609863,0.4160525500774384,-0.03696544840931892,0,0,0,-1,-1
2022-06-08T09:19:39.087+01:00,3971.435060125,-1.922027587890625,0.6529083251953125,-0.555908203125,3971.420137125,-0.9838034520358484,1.530134289154207,-0.4290999975287446,-6.389753818511963,-1.973895072937012,-2.675189971923828,-3.023304462432861,0.1005489230155945,-0.4864262938499451,XArbitraryZVertical,-0.1842410822120397,-0.6690085939730952,0.46285165431609,-0.5515895375203912,0.9085888862609863,0.4160525500774384,-0.03696544840931892,0,0,0,-1,-1
2022-06-08T09:19:39.101+01:00,3971.449983125,-1.597854614257812,0.8023681640625,-0.5807952880859375,3971.440034125,-0.852558273042494,1.550544172654382,-0.4911934347089579,-5.413899421691895,-1.822670578956604,-3.148133516311646,-2.803617477416992,0.1812297701835632,-0.5380516648292542,XArbitraryZVertical,-0.1226043672965069,-0.6899564492617236,0.4414064163134815,-0.5604361857808499,0.8815898299217224,0.4716785550117493,-0.01785653457045555,0,0,0,-1,-1
2022-06-08T09:19:39.116+01:00,3971.464906125,-1.36688232421875,0.9235076904296875,-0.3797607421875,3971.459931125,-0.7453066521835364,1.56940645783326,-0.5578690836421927,-4.062846660614014,-1.667120575904846,-3.402109861373901,-2.365367412567139,0.3160335421562195,-0.5567890405654907,XArbitraryZVertical,-0.06587423180697316,-0.7036128294786976,0.4288706065622221,-0.5627250321352698,0.8483841419219971,0.5293795466423035,-0.001179143553599715,0,0,0,-1,-1
2022-06-08T09:19:39.131+01:00,3971.479829125,-1.18359375,1.113052368164062,0.09844970703125,3971.459931125,-0.7453066521835364,1.56940645783326,-0.5578690836421927,-4.062846660614014,-1.667120575904846,-3.402109861373901,-2.365367412567139,0.3160335421562195,-0.5567890405654907,XArbitraryZVertical,-0.06587423180697316,-0.7036128294786976,0.4288706065622221,-0.5627250321352698,0.8483841419219971,0.5293795466423035,-0.001179143553599715,0,0,0,-1,-1
2022-06-08T09:19:39.146+01:00,3971.494722125,-1.0245361328125,1.717910766601562,0.88250732421875,3971.479829125,-0.6519846994872474,1.590248797137212,-0.6258507160876161,-3.779550075531006,-1.393537163734436,-3.41416597366333,-2.041177272796631,0.4648416638374329,-0.101122260093689,XArbitraryZVertical,-0.01334025383181326,-0.7125337276825356,0.4215570711605596,-0.560720297069681,0.8103116154670715,0.5857869386672974,0.01576455123722553,0,0,0,-1,-1
2022-06-08T09:19:39.163+01:00,3971.509645125,-0.2587432861328125,4.0120849609375,1.738388061523438,3971.499696125,-0.578692644208967,1.61352815818174,-0.6842846661824187,-1.404024600982666,-0.5558016896247864,-2.66756534576416,-1.798700094223022,1.085791826248169,0.8494056463241577,XArbitraryZVertical,0.02838825520600231,-0.7181538156920368,0.4181403140239408,-0.5555247638381486,0.7741639018058777,0.6321188807487488,0.03310159221291542,0,0,0,-1,-1
2022-06-08T09:19:39.176+01:00,3971.524568125,1.575790405273438,6.70458984375,2.221359252929688,3971.519593125,-0.5769208251617129,1.620527330673542,-0.7474380923349232,1.291130065917969,1.147937178611755,-4.104384899139404,-0.4905367493629456,4.26152229309082,1.923699975013733,XArbitraryZVertical,0.04938599293492074,-0.7181856834782615,0.4361182589444357,-0.5399732080413354,0.7325257658958435,0.6797620058059692,0.0364593043923378,0,0,0,-1,-1
2022-06-08T09:19:39.192+01:00,3971.539491125,4.087570190429688,8.18511962890625,1.812469482421875,3971.519593125,-0.5769208251617129,1.620527330673542,-0.7474380923349232,1.291130065917969,1.147937178611755,-4.104384899139404,-0.4905367493629456,4.26152229309082,1.923699975013733,XArbitraryZVertical,0.04938599293492074,-0.7181856834782615,0.4361182589444357,-0.5399732080413354,0.7325257658958435,0.6797620058059692,0.0364593043923378,0,0,0,-1,-1
2022-06-08T09:19:39.206+01:00,3971.554383125,5.187545776367188,8.026809692382812,2.528717041015625,3971.539491125,-0.6200507582359744,1.621174924311841,-0.8582538340068774,2.320476531982422,1.843590378761292,-7.284480571746826,2.51143741607666,7.065166473388672,1.983084797859192,XArbitraryZVertical,0.07199420208890386,-0.71503679563775,0.4783157757233408,-0.5047308166954005,0.6529302597045898,0.7567021250724792,0.03292156755924225,0,0,0,-1,-1
2022-06-08T09:19:39.221+01:00,3971.569306125,4.771316528320312,6.714065551757812,2.855804443359375,3971.559358125,-0.7072341589295572,1.598698436678007,-1.043171690107957,3.104177713394165,3.126397609710693,-10.57973480224609,4.684259414672852,7.162804126739502,2.514670610427856,XArbitraryZVertical,0.1106298162517413,-0.7034090132235225,0.544423581291584,-0.4433730243286551,0.5032861828804016,0.864005446434021,0.014046392403543,0,0,0,-1,-1
2022-06-08T09:19:39.236+01:00,3971.584230125,5.233154296875,4.590469360351562,2.414535522460938,3971.579255125,-0.8328303871654288,1.56723356487826,-1.266191387932329,2.291618824005127,5.263834476470947,-11.47776889801025,4.666058540344238,5.162428379058838,2.871902942657471,XArbitraryZVertical,0.1531122010066001,-0.6899437585067825,0.6129169213061134,-0.3533653846816086,0.2999143600463867,0.9539654850959778,-0.001068528043106198,0,0,0,-1,-1
2022-06-08T09:19:39.251+01:00,3971.599153125,4.960861206054688,2.906158447265625,1.378921508789062,3971.579255125,-0.8328303871654288,1.56723356487826,-1.266191387932329,2.291618824005127,5.263834476470947,-11.47776889801025,4.666058540344238,5.162428379058838,2.871902942657471,XArbitraryZVertical,0.1531122010066001,-0.6899437585067825,0.6129169213061134,-0.3533653846816086,0.2999143600463867,0.9539654850959778,-0.001068528043106198,0,0,0,-1,-1
2022-06-08T09:19:39.266+01:00,3971.614045125,4.263168334960938,1.616424560546875,0.90509033203125,3971.599153125,-1.192997659835708,1.330881488519975,-1.490475055482954,1.886919021606445,6.489997386932373,-11.35004138946533,5.019383907318115,2.364292621612549,1.680869579315186,XArbitraryZVertical,0.1864429136354866,-0.6750602479103341,0.6711487981132983,-0.2430884358012154,0.0779368057847023,0.9967759847640991,-0.01906540244817734,0,0,0,-1,-1
2022-06-08T09:19:39.281+01:00,3971.628968125,3.533935546875,0.770599365234375,0.8722076416015625,3971.619020125,2.508847753544443,-1.112551472688185,-1.420796563254226,2.638472318649292,6.937703132629395,-10.41015815734863,4.397188186645508,0.6276533603668213,0.9711977243423462,XArbitraryZVertical,0.2081294531833074,-0.6508674663151135,0.7189824856904841,-0.126955831794013,-0.1340200155973434,0.9887711405754089,-0.06610734760761261,0,0,0,-1,-1
2022-06-08T09:19:39.296+01:00,3971.643891125,3.159194946289062,-0.163787841796875,0.988250732421875,3971.638917125,2.379190737618318,-1.098538222664916,-1.221546898179569,3.196867227554321,7.147945880889893,-8.821521759033203,3.674579858779907,-0.4128812551498413,1.087196707725525,XArbitraryZVertical,0.2149995044397566,-0.6131425652825879,0.7599397582801449,-0.0179697897908702,-0.3047372698783875,0.9396297931671143,-0.1556628197431564,0,0,0,-1,-1
2022-06-08T09:19:39.311+01:00,3971.658815125,3.08331298828125,-1.424835205078125,0.9967803955078125,3971.638917125,2.379190737618318,-1.098538222664916,-1.221546898179569,3.196867227554321,7.147945880889893,-8.821521759033203,3.674579858779907,-0.4128812551498413,1.087196707725525,XArbitraryZVertical,0.2149995044397566,-0.6131425652825879,0.7599397582801449,-0.0179697897908702,-0.3047372698783875,0.9396297931671143,-0.1556628197431564,0,0,0,-1,-1
2022-06-08T09:19:39.325+01:00,3971.673707125,3.033111572265625,-2.298019409179688,0.8882598876953125,3971.658815125,2.313617400491303,-1.015797292343252,-1.058507291647176,2.142869472503662,7.123762130737305,-6.784398078918457,3.495746374130249,-1.904538154602051,1.234428524971008,XArbitraryZVertical,0.2068787401482587,-0.5727604785448283,0.7892845438642418,0.07859004454921487,-0.416598916053772,0.871624767780304,-0.2582932412624359,0,0,0,-1,-1
2022-06-08T09:19:39.341+01:00,3971.688630125,2.574569702148438,-2.5946044921875,0.68408203125,3971.678681125,2.229186961958739,-0.9481999816531674,-0.9508571436634652,-0.1134756505489349,6.835655689239502,-4.923979759216309,3.505085229873657,-3.11193323135376,1.227059602737427,XArbitraryZVertical,0.1849907512254126,-0.5444066660190949,0.8021937881841225,0.1608877718546005,-0.4719736278057098,0.8139137625694275,-0.3387995958328247,0,0,0,-1,-1
2022-06-08T09:19:39.355+01:00,3971.703553125,2.359649658203125,-2.693771362304688,0.466888427734375,3971.698579125,2.122922710514717,-0.8970297562796696,-0.9040520455268873,-1.987397789955139,6.728592395782471,-2.573884010314941,2.948407888412476,-3.461925745010376,1.006755352020264,XArbitraryZVertical,0.1486514494035371,-0.5338284336719283,0.8000536431321646,0.2298783588172492,-0.4832894802093506,0.7858392596244812,-0.3858599066734314,0,0,0,-1,-1
2022-06-08T09:19:39.371+01:00,3971.718476125,2.165267944335938,-2.423828125,0.291351318359375,3971.718476125,2.04381061814938,-0.8320982125594659,-0.9152327559517593,-2.271780252456665,6.097312927246094,0.1540869325399399,2.699138164520264,-3.337092399597168,0.7391226887702942,XArbitraryZVertical,0.09845954034841081,-0.5339231379516514,0.7931994454459613,0.2758014910753681,-0.4507097005844116,0.7927045226097107,-0.4104636013507843,0,0,0,-1,-1
2022-06-08T09:19:39.385+01:00,3971.733369125,2.08612060546875,-1.978469848632812,0.281890869140625,3971.718476125,2.04381061814938,-0.8320982125594659,-0.9152327559517593,-2.271780252456665,6.097312927246094,0.1540869325399399,2.699138164520264,-3.337092399597168,0.7391226887702942,XArbitraryZVertical,0.09845954034841081,-0.5339231379516514,0.7931994454459613,0.2758014910753681,-0.4507097005844116,0.7927045226097107,-0.4104636013507843,0,0,0,-1,-1
2022-06-08T09:19:39.400+01:00,3971.748292125,2.071090698242188,-1.724838256835938,0.351898193359375,3971.738343125,2.033657959202691,-0.7294768082249418,-0.9672504684507817,-2.012994050979614,5.044050693511963,3.086501598358154,2.464391469955444,-2.801798105239868,0.7050241231918335,XArbitraryZVertical,0.0400425418085047,-0.5355650900337362,0.7906380857903913,0.2940376131325702,-0.3782708644866943,0.8233283162117004,-0.4231332540512085,0,0,0,-1,-1
2022-06-08T09:19:39.415+01:00,3971.763215125,1.950042724609375,-1.375686645507812,0.368896484375,3971.758241125,2.113592554167778,-0.5724440155627405,-1.052336160678795,-2.310553550720215,3.901658773422241,5.359483242034912,2.306576728820801,-2.496848821640015,0.7865538597106934,XArbitraryZVertical,-0.02428508909869822,-0.539572547142474,0.7920809265309954,0.2843929707495407,-0.2684297561645508,0.8685832619667053,-0.4165433943271637,0,0,0,-1,-1
2022-06-08T09:19:39.430+01:00,3971.778138125,1.859466552734375,-0.8956146240234375,0.3658905029296875,3971.778138125,2.318582202691444,-0.3235615882357071,-1.145109607950857,-1.841445326805115,2.766162872314453,6.989155292510986,2.012565612792969,-1.988270044326782,0.7597432136535645,XArbitraryZVertical,-0.08979158949661205,-0.5442227586761381,0.7951998015372846,0.2518259815950168,-0.1312943547964096,0.9107553958892822,-0.3915181159973145,0,0,0,-1,-1
2022-06-08T09:19:39.445+01:00,3971.793061125,1.837646484375,-0.4041900634765625,0.2824859619140625,3971.778138125,2.318582202691444,-0.3235615882357071,-1.145109607950857,-1.841445326805115,2.766162872314453,6.989155292510986,2.012565612792969,-1.988270044326782,0.7597432136535645,XArbitraryZVertical,-0.08979158949661205,-0.5442227586761381,0.7951998015372846,0.2518259815950168,-0.1312943547964096,0.9107553958892822,-0.3915181159973145,0,0,0,-1,-1
2022-06-08T09:19:39.460+01:00,3971.807954125,1.909805297851562,-0.155548095703125,0.3166046142578125,3971.798005125,2.685689580986625,0.06331850101163498,-1.191317991882678,-0.8740085363388062,2.120726346969604,7.80369758605957,1.814206719398499,-1.333048105239868,0.652179479598999,XArbitraryZVertical,-0.1522496024908954,-0.5403455442268631,0.8019479136644551,0.2042699644113411,0.02343977242708206,0.9288579821586609,-0.3696934878826141,0,0,0,-1,-1
2022-06-08T09:19:39.475+01:00,3971.822865125,1.963058471679688,-0.0496826171875,0.5030975341796875,3971.817891125,3.099007751743323,0.483216826531016,-1.160700989897816,-0.5525941848754883,1.629326701164246,8.310937881469727,1.732218623161316,-1.034422874450684,0.7405600547790527,XArbitraryZVertical,-0.2113796591693075,-0.5280101349903159,0.8090032318081857,0.1484509092540475,0.1852464824914932,0.9170828461647034,-0.3530478775501251,0,0,0,-1,-1
2022-06-08T09:19:39.489+01:00,3971.837788125,2.067657470703125,0.0954437255859375,0.5282440185546875,3971.817891125,3.099007751743323,0.483216826531016,-1.160700989897816,-0.5525941848754883,1.629326701164246,8.310937881469727,1.732218623161316,-1.034422874450684,0.7405600547790527,XArbitraryZVertical,-0.2113796591693075,-0.5280101349903159,0.8090032318081857,0.1484509092540475,0.1852464824914932,0.9170828461647034,-0.3530478775501251,0,0,0,-1,-1
2022-06-08T09:19:39.504+01:00,3971.852711125,2.239273071289062,-0.1206817626953125,0.4688262939453125,3971.837788125,-2.863717026093603,0.7990489115207662,-1.063621022267294,-0.1828701198101044,1.161226391792297,8.877155303955078,1.684792757034302,-0.7945454120635986,0.8875874280929565,XArbitraryZVertical,-0.2673302691619823,-0.509087570820088,0.8136791783805456,0.08538513716871557,0.3481051325798035,0.8741199970245361,-0.3387287557125092,0,0,0,-1,-1
2022-06-08T09:19:39.520+01:00,3971.867604125,3.01513671875,0.2743682861328125,0.248809814453125,3971.857686125,-2.655269248534489,0.9946131593269928,-0.9164265123237686,0.4164960086345673,0.9376335144042969,9.859261512756348,1.728882670402527,-0.9141133427619934,0.8004405498504639,XArbitraryZVertical,-0.3216579543533536,-0.4803425772001891,0.8158315876622706,0.01503827132850867,0.5103904008865356,0.7934316396713257,-0.3316143453121185,0,0,0,-1,-1
2022-06-08T09:19:39.534+01:00,3971.882527125,4.883529663085938,2.158477783203125,-0.2865142822265625,3971.877553125,-2.513698893763095,1.112146122586469,-0.7377187023139935,-0.06403201818466187,0.2230680882930756,10.26796817779541,2.901857852935791,0.08521097898483276,0.4033730626106262,XArbitraryZVertical,-0.373717867621888,-0.4433065974780949,0.8122595335603057,-0.06362891961114345,0.6635260581970215,0.6726015210151672,-0.3276284337043762,0,0,0,-1,-1
2022-06-08T09:19:39.550+01:00,3971.897450125,5.390457153320312,4.1826171875,-0.874603271484375,3971.897450125,-2.388615352487537,1.191895093706604,-0.5723001217634246,-2.740597248077393,0.3409884572029114,8.772916793823242,4.690175533294678,3.147992849349976,-0.3817136287689209,XArbitraryZVertical,-0.4148698476459959,-0.4152149737426714,0.7966043047201838,-0.1445718185006858,0.7810309529304504,0.5415670871734619,-0.3109590709209442,0,0,0,-1,-1
2022-06-08T09:19:39.564+01:00,3971.912373125,5.168472290039062,4.457107543945312,-0.6490478515625,3971.897450125,-2.388615352487537,1.191895093706604,-0.5723001217634246,-2.740597248077393,0.3409884572029114,8.772916793823242,4.690175533294678,3.147992849349976,-0.3817136287689209,XArbitraryZVertical,-0.4148698476459959,-0.4152149737426714,0.7966043047201838,-0.1445718185006858,0.7810309529304504,0.5415670871734619,-0.3109590709209442,0,0,0,-1,-1
2022-06-08T09:19:39.579+01:00,3971.927266125,4.689453125,4.834335327148438,-1.1324462890625,3971.917347125,-2.23994174244251,1.267324522042615,-0.4582996511534269,-5.550066471099854,-0.2137734442949295,5.81797456741333,4.31264591217041,4.014683723449707,-0.3810506761074066,XArbitraryZVertical,-0.4392535386774815,-0.4160020997162432,0.764988771289145,-0.2208861045429838,0.855826199054718,0.4424238502979279,-0.2679971754550934,0,0,0,-1,-1
2022-06-08T09:19:39.594+01:00,3971.942189125,3.144851684570312,4.124557495117188,-1.432525634765625,3971.937214125,-2.091414481034486,1.324068315163379,-0.408308715364337,-5.935733795166016,-0.3816598057746887,3.165203094482422,3.300139904022217,4.257437705993652,-1.057369709014893,XArbitraryZVertical,-0.44069958889967,-0.440120906466217,0.7307850009188041,-0.2793397974567484,0.8899998664855957,0.3970576524734497,-0.22415491938591,0,0,0,-1,-1
2022-06-08T09:19:39.610+01:00,3971.957112125,1.844757080078125,3.58282470703125,-0.9651641845703125,3971.957112125,-1.96300292908302,1.360281408408051,-0.38477860985979,-5.006402969360352,-0.7875975370407104,1.799483299255371,1.339430332183838,3.330685615539551,-0.8929855227470398,XArbitraryZVertical,-0.4305604223302939,-0.4666642583993794,0.7012545430065968,-0.3241669514135321,0.9064191579818726,0.3753539323806763,-0.193684384226799,0,0,0,-1,-1
2022-06-08T09:19:39.624+01:00,3971.972035125,0.9546051025390625,2.681167602539062,-0.7540435791015625,3971.957112125,-1.96300292908302,1.360281408408051,-0.38477860985979,-5.006402969360352,-0.7875975370407104,1.799483299255371,1.339430332183838,3.330685615539551,-0.8929855227470398,XArbitraryZVertical,-0.4305604223302939,-0.4666642583993794,0.7012545430065968,-0.3241669514135321,0.9064191579818726,0.3753539323806763,-0.193684384226799,0,0,0,-1,-1
2022-06-08T09:19:39.639+01:00,3971.986928125,0.2232818603515625,1.649398803710938,-0.3195953369140625,3971.977009125,-1.864184186817053,1.37502428890085,-0.3736637983042148,-4.261610984802246,-1.213596105575562,1.347408413887024,0.041392982006073,2.316138744354248,-0.5729426145553589,XArbitraryZVertical,-0.415068824713657,-0.4869983352293542,0.6799547771668614,-0.3580669213259101,0.9132120609283447,0.3650288581848145,-0.1811009794473648,0,0,0,-1,-1
2022-06-08T09:19:39.654+01:00,3972.001851125,-0.0550537109375,1.10784912109375,-0.259185791015625,3971.996876125,-1.762581556827745,1.384500205246664,-0.3631484956617355,-5.275318622589111,-1.618563294410706,1.454780697822571,-0.8013599514961243,1.084783315658569,-0.1797033697366714,XArbitraryZVertical,-0.3959361664463685,-0.5066202844720079,0.6575141415766912,-0.392741153511596,0.918608546257019,0.3552191555500031,-0.1731408834457397,0,0,0,-1,-1
2022-06-08T09:19:39.669+01:00,3972.016774125,-0.272918701171875,0.9579010009765625,0.0688934326171875,3972.016774125,-1.633836786505051,1.392703139953536,-0.3600230605428905,-6.400550365447998,-1.964187026023865,1.070889115333557,-1.12999415397644,0.6203145980834961,0.14211405813694,XArbitraryZVertical,-0.3660494607189553,-0.5320807671940507,0.6288781120638063,-0.4329088213709761,0.9210858941078186,0.3522958159446716,-0.16579569876194,0,0,0,-1,-1
2022-06-08T09:19:39.684+01:00,3972.031697125,-0.4683685302734375,0.8691558837890625,0.1006317138671875,3972.016774125,-1.633836786505051,1.392703139953536,-0.3600230605428905,-6.400550365447998,-1.964187026023865,1.070889115333557,-1.12999415397644,0.6203145980834961,0.14211405813694,XArbitraryZVertical,-0.3660494607189553,-0.5320807671940507,0.6288781120638063,-0.4329088213709761,0.9210858941078186,0.3522958159446716,-0.16579569876194,0,0,0,-1,-1
2022-06-08T09:19:39.698+01:00,3972.046620125,-0.7624969482421875,0.6716461181640625,-0.03936767578125,3972.036671125,-1.491385064818548,1.405579911317863,-0.3646429280995692,-6.952422618865967,-1.857985854148865,0.6982004642486572,-1.38989782333374,0.5125402212142944,0.254284143447876,XArbitraryZVertical,-0.3296327977493964,-0.5608172888527506,0.5952194221843243,-0.4717415332840802,0.9215292930603027,0.3566157221794128,-0.1536523699760437,0,0,0,-1,-1
2022-06-08T09:19:39.713+01:00,3972.061512125,-1.078643798828125,0.4540252685546875,-0.1615753173828125,3972.056538125,-1.333794175578571,1.42405711206388,-0.3785005554687155,-7.881450176239014,-2.087215423583984,0.2660558819770813,-1.786970376968384,0.2161352634429932,0.02627556025981903,XArbitraryZVertical,-0.285024694515804,-0.5923080543454653,0.5564847951531289,-0.5081897925072553,0.9192336201667786,0.3695275783538818,-0.135864183306694,0,0,0,-1,-1
2022-06-08T09:19:39.728+01:00,3972.076436125,-1.26092529296875,0.5260467529296875,-0.1561431884765625,3972.076436125,-1.159864873511925,1.446126310787941,-0.3994855828706831,-8.359625816345215,-2.229641437530518,-0.1822730749845505,-2.139178276062012,0.08818259835243225,-0.06340689957141876,XArbitraryZVertical,-0.2309266874011676,-0.6240149699055132,0.5125112565310304,-0.542780295794108,0.9141111373901367,0.3889444768428802,-0.1145563647150993,0,0,0,-1,-1
2022-06-08T09:19:39.743+01:00,3972.091359125,-1.359268188476562,0.5431365966796875,0.162689208984375,3972.076436125,-1.159864873511925,1.446126310787941,-0.3994855828706831,-8.359625816345215,-2.229641437530518,-0.1822730749845505,-2.139178276062012,0.08818259835243225,-0.06340689957141876,XArbitraryZVertical,-0.2309266874011676,-0.6240149699055132,0.5125112565310304,-0.542780295794108,0.9141111373901367,0.3889444768428802,-0.1145563647150993,0,0,0,-1,-1
2022-06-08T09:19:39.758+01:00,3972.106282125,-1.564620971679688,0.583953857421875,0.330718994140625,3972.096333125,-0.9800263814504857,1.478007767334621,-0.4249055454622166,-8.252159118652344,-1.774566650390625,-0.5106022953987122,-2.266426563262939,0.1309017837047577,0.2471055388450623,XArbitraryZVertical,-0.1723578532687497,-0.6542817539887288,0.4653572541785976,-0.5706580498021719,0.9071582555770874,0.4122347235679626,-0.08441631495952606,0,0,0,-1,-1
2022-06-08T09:19:39.773+01:00,3972.121174125,-1.931655883789062,1.07257080078125,0.0258331298828125,3972.116200125,-0.8050587190604549,1.520219194892593,-0.4515603360117644,-7.701189517974854,-1.476317882537842,-1.108989477157593,-2.562297821044922,0.2745980024337769,0.3071306943893433,XArbitraryZVertical,-0.1137817260376085,-0.6814026667265624,0.4186327132661291,-0.5894834565309118,0.8986167311668396,0.4363700151443481,-0.04548824951052666,0,0,0,-1,-1
2022-06-08T09:19:39.788+01:00,3972.136097125,-2.19354248046875,1.53363037109375,-0.3109893798828125,3972.136097125,-0.6546926868936342,1.561789162088364,-0.4851553918161893,-5.75368070602417,-1.165729165077209,-1.785606026649475,-3.041686296463013,0.9432000517845154,-0.1874669194221497,XArbitraryZVertical,-0.05814985775277955,-0.7018794537825481,0.3817980106797733,-0.5985099190764299,0.884566605091095,0.4663458168506622,-0.007967652752995491,0,0,0,-1,-1
2022-06-08T09:19:39.803+01:00,3972.151021125,-1.921340942382812,1.503402709960938,-0.7146148681640625,3972.136097125,-0.6546926868936342,1.561789162088364,-0.4851553918161893,-5.75368070602417,-1.165729165077209,-1.785606026649475,-3.041686296463013,0.9432000517845154,-0.1874669194221497,XArbitraryZVertical,-0.05814985775277955,-0.7018794537825481,0.3817980106797733,-0.5985099190764299,0.884566605091095,0.4663458168506622,-0.007967652752995491,0,0,0,-1,-1
2022-06-08T09:19:39.818+01:00,3972.165944125,-1.536865234375,1.26031494140625,-0.8342742919921875,3972.155995125,-0.5427970398103698,1.59232220920942,-0.5267721137063308,-4.22904109954834,-1.38676381111145,-2.425796031951904,-2.785574913024902,1.000656962394714,-0.733221173286438,XArbitraryZVertical,-0.009543977647762721,-0.7135909539035876,0.3602991669513971,-0.6007339710374058,0.8642340302467346,0.5027456879615784,0.01860627345740795,0,0,0,-1,-1
2022-06-08T09:19:39.832+01:00,3972.180836125,-1.401229858398438,1.3648681640625,-0.470733642578125,3972.175862125,-0.4519831529985884,1.613554030901512,-0.5768579794200045,-3.385808229446411,-1.10554301738739,-2.840770959854126,-2.329540729522705,0.7151812314987183,-0.7460328340530396,XArbitraryZVertical,0.03667362259491204,-0.7187272915596845,0.3487817903098203,-0.600364335812627,0.8374142646789551,0.5453930497169495,0.03582774847745895,0,0,0,-1,-1
2022-06-08T09:19:39.848+01:00,3972.195759125,-1.425033569335938,1.572921752929688,0.1164703369140625,3972.195759125,-0.3867877024823538,1.630986895261713,-0.6348987045511774,-1.53442120552063,-0.7896594405174255,-3.172434329986572,-2.218850135803223,0.902387261390686,-0.1316382884979248,XArbitraryZVertical,0.07705323170749442,-0.7199158526949658,0.3481899777367236,-0.5954389565247871,0.8036735653877258,0.5930959582328796,0.04843207076191902,0,0,0,-1,-1
2022-06-08T09:19:39.862+01:00,3972.210682125,-1.168716430664062,2.095321655273438,0.766326904296875,3972.195759125,-0.3867877024823538,1.630986895261713,-0.6348987045511774,-1.53442120552063,-0.7896594405174255,-3.172434329986572,-2.218850135803223,0.902387261390686,-0.1316382884979248,XArbitraryZVertical,0.07705323170749442,-0.7199158526949658,0.3481899777367236,-0.5954389565247871,0.8036735653877258,0.5930959582328796,0.04843207076191902,0,0,0,-1,-1
2022-06-08T09:19:39.878+01:00,3972.225606125,-0.615325927734375,3.37860107421875,1.865921020507812,3972.215657125,-0.3611454129546065,1.635301859576246,-0.6987296691925242,-0.2625938653945923,-0.2090155035257339,-3.35732889175415,-1.932783842086792,1.452075958251953,0.7169718742370605,XArbitraryZVertical,0.1072002834304642,-0.7163697543653729,0.3610726610413754,-0.5873235316156169,0.7640674710273743,0.6432455778121948,0.04935505241155624,0,0,0,-1,-1
2022-06-08T09:19:39.893+01:00,3972.240498125,1.203582763671875,5.643402099609375,3.362884521484375,3972.235554125,-0.3624827208525955,1.65267264083736,-0.7643440001529794,0.5750840306282043,2.176223993301392,-3.013776779174805,-0.898236095905304,3.354506254196167,2.203858375549316,XArbitraryZVertical,0.125551180953822,-0.7167667363564608,0.3831074837063998,-0.5689561031771448,0.7194184064865112,0.6920636296272278,0.05903530493378639,0,0,0,-1,-1
2022-06-08T09:19:39.907+01:00,3972.255421125,3.497665405273438,8.126953125,4.101516723632812,3972.235554125,-0.3624827208525955,1.65267264083736,-0.7643440001529794,0.5750840306282043,2.176223993301392,-3.013776779174805,-0.898236095905304,3.354506254196167,2.203858375549316,XArbitraryZVertical,0.125551180953822,-0.7167667363564608,0.3831074837063998,-0.5689561031771448,0.7194184064865112,0.6920636296272278,0.05903530493378639,0,0,0,-1,-1
2022-06-08T09:19:39.922+01:00,3972.270344125,6.03717041015625,8.907379150390625,5.040557861328125,3972.255421125,-0.3538523147959561,1.724655820020957,-0.8593296991057454,1.266431570053101,4.444004535675049,-7.422894954681396,2.040070772171021,6.64472484588623,3.903733491897583,XArbitraryZVertical,0.1453139097762315,-0.7272666846601267,0.4154971778385479,-0.5266204504104987,0.6452319622039795,0.7574050426483154,0.1000659242272377,0,0,0,-1,-1
2022-06-08T09:19:39.937+01:00,3972.285267125,4.880599975585938,5.980316162109375,4.879165649414062,3972.275319125,-0.4535276270617611,1.744541312929333,-1.045940400765399,6.568863391876221,6.006298065185547,-9.522367477416992,5.543626308441162,8.041982650756836,4.953933715820312,XArbitraryZVertical,0.1638146005857589,-0.7186632579643126,0.4979446432449404,-0.4568796207835847,0.4935439825057983,0.8653961420059204,0.08662420511245728,0,0,0,-1,-1
2022-06-08T09:19:39.952+01:00,3972.300160125,4.919708251953125,3.904251098632812,3.337982177734375,3972.295216125,-0.6203308805233319,1.734819051542456,-1.27005253048368,3.442282676696777,8.162480354309082,-11.01079082489014,4.288571357727051,4.153586864471436,4.357116222381592,XArbitraryZVertical,0.1779783153641996,-0.7017899868548083,0.5897494528390015,-0.3577848691084391,0.2922544479370117,0.9551163911819458,0.04837093129754066,0,0,0,-1,-1
2022-06-08T09:19:39.967+01:00,3972.315083125,5.298965454101562,3.00213623046875,2.140045166015625,3972.295216125,-0.6203308805233319,1.734819051542456,-1.27005253048368,3.442282676696777,8.162480354309082,-11.01079082489014,4.288571357727051,4.153586864471436,4.357116222381592,XArbitraryZVertical,0.1779783153641996,-0.7017899868548083,0.5897494528390015,-0.3577848691084391,0.2922544479370117,0.9551163911819458,0.04837093129754066,0,0,0,-1,-1
2022-06-08T09:19:39.982+01:00,3972.330006125,4.742935180664062,1.55596923828125,1.4390869140625,3972.315083125,-0.5821497719796344,1.94473321567423,-1.489848306191789,2.253286838531494,8.939167022705078,-10.72061538696289,5.252288818359375,2.324670314788818,2.435795307159424,XArbitraryZVertical,0.1915273742225726,-0.6914372932780284,0.6553984072788496,-0.2359759185207561,0.07527162879705429,0.9967254996299744,0.02953653037548065,0,0,0,-1,-1
2022-06-08T09:19:39.997+01:00,3972.344929125,4.497665405273438,0.10260009765625,0.8662109375,3972.334981125,2.180734125669983,-1.398392141419752,-1.436025583598301,2.559637784957886,8.89566707611084,-9.715334892272949,4.875306606292725,0.5650370717048645,1.46213710308075,XArbitraryZVertical,0.197128354194866,-0.6705336073220114,0.7068402432281862,-0.1090961391623784,-0.1323712468147278,0.9909321665763855,-0.02305018715560436,0,0,0,-1,-1
2022-06-08T09:19:40.011+01:00,3972.359852125,4.3680419921875,-1.267807006835938,0.51727294921875,3972.354878125,2.216035043174088,-1.190873799515156,-1.252553550292556,3.008153915405273,8.432686805725098,-7.795857906341553,4.743803024291992,-1.320666790008545,0.8552041053771973,XArbitraryZVertical,0.1899891642867665,-0.6370912011116669,0.7469879056515563,0.005295375799700797,-0.2905865013599396,0.9497867226600647,-0.1160378381609917,0,0,0,-1,-1
2022-06-08T09:19:40.027+01:00,3972.374745125,4.357955932617188,-2.665451049804688,0.28973388671875,3972.354878125,2.216035043174088,-1.190873799515156,-1.252553550292556,3.008153915405273,8.432686805725098,-7.795857906341553,4.743803024291992,-1.320666790008545,0.8552041053771973,XArbitraryZVertical,0.1899891642867665,-0.6370912011116669,0.7469879056515563,0.005295375799700797,-0.2905865013599396,0.9497867226600647,-0.1160378381609917,0,0,0,-1,-1
2022-06-08T09:19:40.041+01:00,3972.389668125,3.772476196289062,-3.678436279296875,0.2150726318359375,3972.374745125,2.175412998956258,-1.068344899156402,-1.111252186190404,1.361273407936096,7.612218856811523,-5.664659023284912,4.760271549224854,-3.109298229217529,0.5632986426353455,XArbitraryZVertical,0.1721549492490644,-0.6029625519174959,0.7722867991747868,0.1018421378744858,-0.3887199759483337,0.8962547779083252,-0.2135976701974869,0,0,0,-1,-1
2022-06-08T09:19:40.056+01:00,3972.404591125,2.806060791015625,-4.237350463867188,0.0987396240234375,3972.394642125,2.081270675413179,-1.006734221602456,-1.03730143393559,-1.609101891517639,6.998141288757324,-2.936785697937012,4.202242851257324,-4.539471626281738,0.4869529902935028,XArbitraryZVertical,0.1418557513621865,-0.5864612452567729,0.7772466195688252,0.1784031324471625,-0.4297668635845184,0.8610350489616394,-0.2718802988529205,0,0,0,-1,-1
2022-06-08T09:19:40.072+01:00,3972.419514125,2.177383422851562,-3.9334716796875,-0.2024383544921875,3972.414540125,1.966871713179412,-0.9713653392750932,-1.050473851656275,-3.79084324836731,6.28046703338623,1.170318841934204,2.958930015563965,-5.079420566558838,0.2744720876216888,XArbitraryZVertical,0.09046424853990474,-0.5929369298841756,0.7666279872707235,0.2291799681845488,-0.4104833900928497,0.8676589131355286,-0.2804840207099915,0,0,0,-1,-1
2022-06-08T09:19:40.086+01:00,3972.434407125,2.302352905273438,-2.820632934570312,-0.2219390869140625,3972.414540125,1.966871713179412,-0.9713653392750932,-1.050473851656275,-3.79084324836731,6.28046703338623,1.170318841934204,2.958930015563965,-5.079420566558838,0.2744720876216888,XArbitraryZVertical,0.09046424853990474,-0.5929369298841756,0.7666279872707235,0.2291799681845488,-0.4104833900928497,0.8676589131355286,-0.2804840207099915,0,0,0,-1,-1
2022-06-08T09:19:40.101+01:00,3972.449330125,2.696304321289062,-1.467300415039062,-0.0530853271484375,3972.434407125,1.918430466954758,-0.9073629002198595,-1.16131705407367,-4.418806076049805,4.342873096466064,6.196674823760986,2.489935159683228,-4.180862903594971,-0.01582187414169312,XArbitraryZVertical,0.01691474269550164,-0.6141042681905516,0.7533462199041655,0.2346471673725061,-0.3136809766292572,0.9173282384872437,-0.245179682970047,0,0,0,-1,-1
2022-06-08T09:19:40.116+01:00,3972.464253125,2.552200317382812,-0.6865234375,0.0746917724609375,3972.454304125,2.057519643397157,-0.7094752928679915,-1.322702902559711,-3.308544397354126,2.246466159820557,8.256546974182129,2.856268167495728,-2.43668270111084,0.1332189440727234,XArbitraryZVertical,-0.06229841698779919,-0.6347966488705317,0.7440067929742399,0.1990124161241857,-0.1599639356136322,0.9693823456764221,-0.1863042414188385,0,0,0,-1,-1
2022-06-08T09:19:40.131+01:00,3972.479176125,2.315811157226562,-0.21240234375,0.22076416015625,3972.474202125,2.85709558778929,0.107029558380056,-1.421300527969095,-0.8108169436454773,0.91292804479599,9.069633483886719,2.444737195968628,-1.501068711280823,0.2828217148780823,XArbitraryZVertical,-0.1324795317319863,-0.6390664150781211,0.7442613926631659,0.1418384351932797,0.0159104410558939,0.9888463020324707,-0.1480865776538849,0,0,0,-1,-1
2022-06-08T09:19:40.146+01:00,3972.494069125,2.24407958984375,-0.149566650390625,0.2433929443359375,3972.474202125,2.85709558778929,0.107029558380056,-1.421300527969095,-0.8108169436454773,0.91292804479599,9.069633483886719,2.444737195968628,-1.501068711280823,0.2828217148780823,XArbitraryZVertical,-0.1324795317319863,-0.6390664150781211,0.7442613926631659,0.1418384351932797,0.0159104410558939,0.9888463020324707,-0.1480865776538849,0,0,0,-1,-1
2022-06-08T09:19:40.161+01:00,3972.508992125,2.153045654296875,-0.0594635009765625,0.334991455078125,3972.494069125,-2.602176644109512,0.9309298423049596,-1.322435873618181,0.4526121318340302,0.4359247386455536,9.286807060241699,2.057451963424683,-1.108354806900024,0.3813008069992065,XArbitraryZVertical,-0.1952229891146789,-0.6232987937292148,0.7532221545649875,0.07773630827993269,0.1971866637468338,0.9693167209625244,-0.1467731893062592,0,0,0,-1,-1
2022-06-08T09:19:40.176+01:00,3972.523915125,2.043014526367188,0.1715545654296875,0.4520416259765625,3972.513966125,-2.342103570587027,1.181781617991346,-1.157077052576248,0.272275984287262,-0.05507735535502434,9.227682113647461,1.781065344810486,-0.9750953912734985,0.4874675273895264,XArbitraryZVertical,-0.252942590148873,-0.5998183121659695,0.7590375411288504,0.01000763057441728,0.3719803094863892,0.9156319499015808,-0.1524760723114014,0,0,0,-1,-1
2022-06-08T09:19:40.190+01:00,3972.538838125,2.048019409179688,0.2589111328125,0.4320831298828125,3972.533864125,-2.226301301013311,1.27907478953396,-0.9803935353631843,0.4199782907962799,-0.3735437393188477,9.432633399963379,1.48510468006134,-0.5958075523376465,0.6248433589935303,XArbitraryZVertical,-0.305451941116101,-0.5715294372467538,0.7591894504447796,-0.06069976895596325,0.5331751704216003,0.8307164907455444,-0.160106435418129,0,0,0,-1,-1
2022-06-08T09:19:40.205+01:00,3972.553731125,2.46673583984375,0.4918670654296875,0.0721282958984375,3972.533864125,-2.226301301013311,1.27907478953396,-0.9803935353631843,0.4199782907962799,-0.3735437393188477,9.432633399963379,1.48510468006134,-0.5958075523376465,0.6248433589935303,XArbitraryZVertical,-0.305451941116101,-0.5715294372467538,0.7591894504447796,-0.06069976895596325,0.5331751704216003,0.8307164907455444,-0.160106435418129,0,0,0,-1,-1
2022-06-08T09:19:40.220+01:00,3972.568654125,4.00592041015625,1.6851806640625,-0.5673065185546875,3972.553731125,-2.158144650793317,1.321321525736438,-0.7938601028978718,0.1828943341970444,-0.8609081506729126,9.810686111450195,1.561313629150391,-0.3707034587860107,0.4230213165283203,XArbitraryZVertical,-0.3547578193660431,-0.5362817068421003,0.7539268047064869,-0.134696704849449,0.6793935894966125,0.7130649089813232,-0.1730976402759552,0,0,0,-1,-1
2022-06-08T09:19:40.235+01:00,3972.583577125,4.588287353515625,2.96234130859375,0.357086181640625,3972.573628125,-2.087457489018327,1.33493117684338,-0.6110815601330585,-1.181851029396057,-2.118107557296753,8.944104194641113,3.209569215774536,1.111427068710327,-0.3759125471115112,XArbitraryZVertical,-0.3913766690835571,-0.5011260564063916,0.7410236019938465,-0.2158264155773308,0.7963511943817139,0.5737535953521729,-0.1913939565420151,0,0,0,-1,-1
2022-06-08T09:19:40.250+01:00,3972.598500125,3.78472900390625,2.396575927734375,0.5165557861328125,3972.593525125,-2.002813193870407,1.338223577457385,-0.4592370339959237,-2.556568384170532,-1.81773579120636,8.030217170715332,3.439998626708984,2.421359777450562,0.771680474281311,XArbitraryZVertical,-0.4124668985664688,-0.4759938911664396,0.7193969058532863,-0.2928631917331854,0.8722569942474365,0.4432643055915833,-0.2066017389297485,0,0,0,-1,-1
2022-06-08T09:19:40.265+01:00,3972.613423125,4.237503051757812,2.98193359375,-0.0701904296875,3972.593525125,-2.002813193870407,1.338223577457385,-0.4592370339959237,-2.556568384170532,-1.81773579120636,8.030217170715332,3.439998626708984,2.421359777450562,0.771680474281311,XArbitraryZVertical,-0.4124668985664688,-0.4759938911664396,0.7193969058532863,-0.2928631917331854,0.8722569942474365,0.4432643055915833,-0.2066017389297485,0,0,0,-1,-1
2022-06-08T09:19:40.280+01:00,3972.628315125,3.871780395507812,3.33990478515625,-0.13238525390625,3972.613423125,-1.911204761182774,1.330454423972079,-0.3388259508514133,-2.748825311660767,-2.385935068130493,5.790783882141113,3.060770273208618,2.377321481704712,0.3700701892375946,XArbitraryZVertical,-0.4203014914836,-0.4594518005897601,0.6933914307384123,-0.3625728990538,0.9160364270210266,0.3323800265789032,-0.2245014011859894,0,0,0,-1,-1
2022-06-08T09:19:40.295+01:00,3972.643239125,2.644729614257812,2.94207763671875,0.2143096923828125,3972.633290125,-1.814940223516137,1.311492114064035,-0.2597795805635107,-4.205942153930664,-2.218045473098755,4.221415996551514,2.937643527984619,3.083037376403809,0.11541947722435,XArbitraryZVertical,-0.4131926047488618,-0.4531771179505764,0.6678917374819271,-0.4216907162309383,0.9341370463371277,0.256867527961731,-0.2478047460317612,0,0,0,-1,-1
2022-06-08T09:19:40.310+01:00,3972.658162125,1.96832275390625,2.638046264648438,0.024383544921875,3972.653187125,-1.711273190785669,1.298066759854158,-0.2174418190662721,-4.435094356536865,-1.595859408378601,2.55715799331665,1.467459440231323,2.570415735244751,0.4463374614715576,XArbitraryZVertical,-0.3969486987157468,-0.45926306127321,0.6409296962501627,-0.4698066531658292,0.9403620958328247,0.2157323956489563,-0.2630183398723602,0,0,0,-1,-1
2022-06-08T09:19:40.325+01:00,3972.673085125,1.304931640625,2.50927734375,-0.1114654541015625,3972.673085125,-1.60843169866092,1.291301414200768,-0.2077014381787438,-4.944594383239746,-1.294852256774902,1.218527674674988,0.5693360567092896,2.379527807235718,0.1833016574382782,XArbitraryZVertical,-0.3736401388858269,-0.4747868120667795,0.6154688841251394,-0.5061310240245762,0.9405364394187927,0.2062112838029861,-0.2699410617351532,0,0,0,-1,-1
2022-06-08T09:19:40.339+01:00,3972.687977125,0.8138427734375,2.124130249023438,-0.0505218505859375,3972.673085125,-1.60843169866092,1.291301414200768,-0.2077014381787438,-4.944594383239746,-1.294852256774902,1.218527674674988,0.5693360567092896,2.379527807235718,0.1833016574382782,XArbitraryZVertical,-0.3736401388858269,-0.4747868120667795,0.6154688841251394,-0.5061310240245762,0.9405364394187927,0.2062112838029861,-0.2699410617351532,0,0,0,-1,-1
2022-06-08T09:19:40.354+01:00,3972.702900125,0.3394317626953125,1.689727783203125,0.1515655517578125,3972.692952125,-1.507331703915559,1.28836477758005,-0.2211159152397412,-5.008535385131836,-1.116694927215576,0.2853388786315918,-0.1231557726860046,1.90481173992157,0.2213846147060394,XArbitraryZVertical,-0.3441241573536338,-0.495606041635042,0.5921483033333909,-0.5341473995390117,0.9369984269142151,0.2193185091018677,-0.2719064354896545,0,0,0,-1,-1
2022-06-08T09:19:40.369+01:00,3972.717824125,-0.1255035400390625,1.537017822265625,0.11639404296875,3972.712849125,-1.410375129161207,1.292616000670564,-0.2512349830236623,-4.733482837677002,-0.6829277276992798,-0.491965651512146,-0.7606849670410156,1.352626442909241,0.4321383833885193,XArbitraryZVertical,-0.3111210275747041,-0.5198182316946045,0.5708275016186444,-0.5542099275672741,0.9313697218894958,0.2486003637313843,-0.2659854292869568,0,0,0,-1,-1
2022-06-08T09:19:40.385+01:00,3972.732747125,-0.4482421875,1.488845825195312,-0.0804443359375,3972.732747125,-1.331800141287158,1.304521654410097,-0.2880981300127821,-3.518749952316284,-0.226671576499939,-1.069228887557983,-1.26723575592041,1.25499427318573,0.2435814142227173,XArbitraryZVertical,-0.2813816920313927,-0.5428418199610463,0.5543815093609155,-0.5646310513636245,0.9249963164329529,0.28412926197052,-0.2522942125797272,0,0,0,-1,-1
2022-06-08T09:19:40.399+01:00,3972.747639125,-0.7668609619140625,1.171295166015625,-0.3514251708984375,3972.732747125,-1.331800141287158,1.304521654410097,-0.2880981300127821,-3.518749952316284,-0.226671576499939,-1.069228887557983,-1.26723575592041,1.25499427318573,0.2435814142227173,XArbitraryZVertical,-0.2813816920313927,-0.5428418199610463,0.5543815093609155,-0.5646310513636245,0.9249963164329529,0.28412926197052,-0.2522942125797272,0,0,0,-1,-1
2022-06-08T09:19:40.414+01:00,3972.762562125,-0.9438629150390625,0.8902435302734375,-0.58709716796875,3972.752614125,-1.278191230572073,1.319645295562158,-0.3292771540028649,-2.673973560333252,0.02019274979829788,-1.582415699958801,-1.683449745178223,0.8479360342025757,-0.1162574887275696,XArbitraryZVertical,-0.2567413806345631,-0.562583348003996,0.5455348883610235,-0.5656637552940362,0.9165887832641602,0.3233591020107269,-0.2351676821708679,0,0,0,-1,-1
